workerid,proliferate.condition,adjQuestion,competitorName,condition,contextID,contextVar,correctAnsQuestion,featureQuestion,notCompetitorName,numQuestion,object,response,rt,slide_number_in_experiment,targetName,utterance,catch_trials,subject_information.age,subject_information.asses,subject_information.color,subject_information.comments,subject_information.education,subject_information.enjoyment,subject_information.gender,subject_information.language,system.Browser,system.OS,system.screenH,system.screenW,time_in_minutes,error
1275,list1,,,,,,,,,,Mary,Mary,0,1,,bot_check,[],31,Yes,No,,4,2,Female,English,Safari,Mac,900,1440,2.8693,
1275,list1,blue,box_wood_blue,color_correct,practice_1,,yes,color,box_wood_brown,2,,"[14159, 'yes']",,practice_trial,box_cardboard_blue,,[],31,Yes,No,,4,2,Female,English,Safari,Mac,900,1440,2.8693,
1275,list1,plastic,ball_metal_red,material_incorrect,practice_2,,no,material,ball_plastic_red,4,,"[5302, 'no']",,practice_trial,ball_metal_green,,[],31,Yes,No,,4,2,Female,English,Safari,Mac,900,1440,2.8693,
1275,list1,metal,bowl_glass_blue,material_correct,practice_3,,yes,material,bowl_metal_blue,2,,"[3391, 'yes']",,practice_trial,bowl_glass_green,,[],31,Yes,No,,4,2,Female,English,Safari,Mac,900,1440,2.8693,
1275,list1,blue,vase_glass_green,color_incorrect,practice_4,,no,color,vase_glass_blue,3,,"[4073, 'no']",,practice_trial,vase_wood_green,,[],31,Yes,No,,4,2,Female,English,Safari,Mac,900,1440,2.8693,
1275,list1,green,bag_plastic_blue,color_incorrect,practice_5,,no,color,bag_plastic_green,4,,"[3605, 'no']",,practice_trial,bag_paper_blue,,[],31,Yes,No,,4,2,Female,English,Safari,Mac,900,1440,2.8693,
1275,list1,wooden,door_steel_yellow,material_correct,practice_6,,yes,material,door_steel_red,1,,"[3870, 'yes']",,practice_trial,door_wood_yellow,,[],31,Yes,No,,4,2,Female,English,Safari,Mac,900,1440,2.8693,
1275,list1,glass,bottle_plastic_green,material1_incorrect,bgg_bpg_bpb,bgg_bpg_bpb_2,no,material,bottle_plastic_blue,"['2', '3']",,"[4995, 'no']",,11,bottle_glass_green,,[],31,Yes,No,,4,2,Female,English,Safari,Mac,900,1440,2.8693,
1275,list1,pink,plate_plastic_blue_original,color2_correct,ppb_ppbo_ppp,ppb_ppbo_ppp_2,yes,color,plate_plastic_pink,2,,"[1993, 'yes']",,12,plate_paper_blue,,[],31,Yes,No,,4,2,Female,English,Safari,Mac,900,1440,2.8693,
1275,list1,metal,pitcher_glass_blue,material1_incorrect,pmb_pgb_pgco,pmb_pgb_pgco_2,no,material,pitcher_glass_clear_original,"['2', '3']",,"[3727, 'no']",,13,pitcher_metal_blue,,[],31,Yes,No,,4,2,Female,English,Safari,Mac,900,1440,2.8693,
1275,list1,metal,chair_metal_green,material1_incorrect,cmp_cmg_cwg,cmp_cmg_cwg_1,no,material,chair_wood_green,"['3', '4']",,"[3480, 'no']",,14,chair_metal_purple,,[],31,Yes,No,,4,2,Female,English,Safari,Mac,900,1440,2.8693,
1275,list1,silver,cup_metal_green,color2_correct,cpg_cmg_cmso,cpg_cmg_cmso_1,yes,color,cup_metal_silver_original,2,,"[2821, 'yes']",,15,cup_plastic_green,,[],31,Yes,No,,4,2,Female,English,Safari,Mac,900,1440,2.8693,
1275,list1,metal,table_wood_blue,material1_incorrect,tmb_twb_twbo,tmb_twb_twbo_1,no,material,table_wood_brown_original,"['2', '3']",,"[4360, 'no']",,16,table_metal_blue,,[],31,Yes,No,,4,2,Female,English,Safari,Mac,900,1440,2.8693,
1275,list1,green,cup_metal_green,color1_incorrect,cpg_cmg_cmb,cpg_cmg_cmb_1,no,color,cup_metal_blue,"['3', '4']",,"[2494, 'no']",,17,cup_plastic_green,,[],31,Yes,No,,4,2,Female,English,Safari,Mac,900,1440,2.8693,
1275,list1,blue,pitcher_plastic_blue,color1_correct,pmb_ppb_ppwo,pmb_ppb_ppwo_1,yes,color,pitcher_plastic_white_original,2,,"[2540, 'yes']",,18,pitcher_metal_blue,,[],31,Yes,No,,4,2,Female,English,Safari,Mac,900,1440,2.8693,
1275,list1,blue,table_metal_blue,color2_correct,tmg_tmb_twb,tmg_tmb_twb_2,yes,color,table_wood_blue,3,,"[3805, 'yes']",,19,table_metal_green,,[],31,Yes,No,,4,2,Female,English,Safari,Mac,900,1440,2.8693,
1275,list1,blue,table_metal_green,color1_incorrect,tmb_tmg_twg,tmb_tmg_twg_2,no,color,table_wood_green,"['2', '3']",,"[2867, 'no']",,20,table_metal_blue,,[],31,Yes,No,,4,2,Female,English,Safari,Mac,900,1440,2.8693,
1275,list1,green,spoon_wood_blue,color1_correct,swg_swb_spb,swg_swb_spb_2,yes,color,spoon_plastic_blue,1,,"[3281, 'yes']",,21,spoon_wood_green,,[],31,Yes,No,,4,2,Female,English,Safari,Mac,900,1440,2.8693,
1275,list1,black,jacket_leather_purple,color2_incorrect,jdp_jlp_jlbo,jdp_jlp_jlbo_1,no,color,jacket_leather_black_original,"['3', '4']",,"[3464, 'no']",,22,jacket_denim_purple,,[],31,Yes,No,,4,2,Female,English,Safari,Mac,900,1440,2.8693,
1275,list1,glass,bottle_glass_green,material2_incorrect,bpg_bgg_bgb,bpg_bgg_bgb_2,no,material,bottle_glass_blue,"['4', '5']",,"[3357, 'no']",,23,bottle_plastic_green,,[],31,Yes,No,,4,2,Female,English,Safari,Mac,900,1440,2.8693,
1275,list1,plastic,pitcher_plastic_blue,material2_incorrect,pmb_ppb_ppg,pmb_ppb_ppg_1,no,material,pitcher_plastic_green,"['4', '5']",,"[3936, 'no']",,24,pitcher_metal_blue,,[],31,Yes,No,,4,2,Female,English,Safari,Mac,900,1440,2.8693,
1275,list1,green,boot_leather_brown,color1_incorrect,blg_blb_brb,blg_blb_brb_1,no,color,boot_rubber_brown,"['2', '3']",,"[2610, 'no']",,25,boot_leather_green,,[],31,Yes,No,,4,2,Female,English,Safari,Mac,900,1440,2.8693,
1275,list1,purple,chair_metal_purple,color2_incorrect,cmg_cmp_cwp,cmg_cmp_cwp_2,no,color,chair_wood_purple,"['4', '5']",,"[2578, 'no']",,26,chair_metal_green,,[],31,Yes,No,,4,2,Female,English,Safari,Mac,900,1440,2.8693,
1275,list1,plastic,plate_paper_green,material2_correct,ppb_ppg_ppg,ppb_ppg_ppg_2,yes,material,plate_plastic_green,2,,"[3896, 'yes']",,27,plate_paper_blue,,[],31,Yes,No,,4,2,Female,English,Safari,Mac,900,1440,2.8693,
1275,list1,green,boot_leather_black_original,color1_correct,blg_blbo_brbo,blg_blbo_brbo_2,yes,color,boot_rubber_black_original,1,,"[2368, 'no']",,28,boot_leather_green,,[],31,Yes,No,,4,2,Female,English,Safari,Mac,900,1440,2.8693,
1275,list1,glass,pitcher_glass_blue,material2_correct,pmb_pgb_pgg,pmb_pgb_pgg_1,yes,material,pitcher_glass_green,3,,"[2730, 'yes']",,29,pitcher_metal_blue,,[],31,Yes,No,,4,2,Female,English,Safari,Mac,900,1440,2.8693,
1275,list1,metal,spoon_wood_blue,material2_incorrect,swg_swb_smb,swg_swb_smb_2,no,material,spoon_metal_blue,"['3', '4']",,"[3812, 'no']",,30,spoon_wood_green,,[],31,Yes,No,,4,2,Female,English,Safari,Mac,900,1440,2.8693,
1275,list1,plastic,bottle_plastic_green,material2_correct,bgg_bpg_bpco,bgg_bpg_bpco_2,yes,material,bottle_plastic_clear_original,3,,"[2914, 'yes']",,31,bottle_glass_green,,[],31,Yes,No,,4,2,Female,English,Safari,Mac,900,1440,2.8693,
1275,list1,metal,table_metal_green,material1_correct,tmso_tmg_twg,tmso_tmg_twg_2,yes,material,table_wood_green,2,,"[5127, 'yes']",,32,table_metal_silver_original,,[],31,Yes,No,,4,2,Female,English,Safari,Mac,900,1440,2.8693,
1275,list1,green,plate_paper_blue,color2_incorrect,ppbo_ppb_ppg,ppbo_ppb_ppg_1,no,color,plate_paper_green,"['3', '4']",,"[2351, 'no']",,33,plate_plastic_blue_original,,[],31,Yes,No,,4,2,Female,English,Safari,Mac,900,1440,2.8693,
1275,list1,wooden,table_wood_blue,material2_correct,tmb_twb_twg,tmb_twb_twg_2,yes,material,table_wood_green,3,,"[3042, 'yes']",,34,table_metal_blue,,[],31,Yes,No,,4,2,Female,English,Safari,Mac,900,1440,2.8693,
1275,list1,plastic,plate_paper_blue,material1_correct,ppbo_ppb_ppwo,ppbo_ppb_ppwo_1,yes,material,plate_paper_white_original,1,,"[3036, 'yes']",,35,plate_plastic_blue_original,,[],31,Yes,No,,4,2,Female,English,Safari,Mac,900,1440,2.8693,
1275,list1,green,bottle_glass_green,color1_correct,bpg_bgg_bgco,bpg_bgg_bgco_2,yes,color,bottle_glass_clear_original,2,,"[2804, 'yes']",,36,bottle_plastic_green,,[],31,Yes,No,,4,2,Female,English,Safari,Mac,900,1440,2.8693,
1275,list1,blue,plate_plastic_blue_original,color1_incorrect,ppb_ppbo_ppg,ppb_ppbo_ppg_2,no,color,plate_plastic_green,"['3', '4']",,"[2964, 'no']",,37,plate_paper_blue,,[],31,Yes,No,,4,2,Female,English,Safari,Mac,900,1440,2.8693,
1275,list1,purple,chair_metal_purple,color2_correct,cmg_cmp_cpp,cmg_cmp_cpp_2,yes,color,chair_plastic_purple,3,,"[1971, 'yes']",,38,chair_metal_green,,[],31,Yes,No,,4,2,Female,English,Safari,Mac,900,1440,2.8693,
1275,list1,denim,jacket_leather_purple,material1_correct,jdp_jlp_jlg,jdp_jlp_jlg_1,yes,material,jacket_leather_green,1,,"[3936, 'yes']",,39,jacket_denim_purple,,[],31,Yes,No,,4,2,Female,English,Safari,Mac,900,1440,2.8693,
1275,list1,metal,chair_metal_green,material1_correct,cmp_cmg_cpg,cmp_cmg_cpg_1,yes,material,chair_plastic_green,2,,"[2306, 'yes']",,40,chair_metal_purple,,[],31,Yes,No,,4,2,Female,English,Safari,Mac,900,1440,2.8693,
1275,list1,blue,table_metal_blue,color2_incorrect,tmso_tmb_twb,tmso_tmb_twb_2,no,color,table_wood_blue,"['4', '5']",,"[2454, 'no']",,41,table_metal_silver_original,,[],31,Yes,No,,4,2,Female,English,Safari,Mac,900,1440,2.8693,
1483,list1,,,,,,,,,,Linda,Linda,0,1,,bot_check,[],37,Yes,No,,0,1,Male,English,Chrome,Windows,864,1536,4.245416666666666,
1483,list1,blue,box_wood_blue,color_correct,practice_1,,yes,color,box_wood_brown,2,,"[5217, 'yes']",,practice_trial,box_cardboard_blue,,[],37,Yes,No,,0,1,Male,English,Chrome,Windows,864,1536,4.245416666666666,
1483,list1,plastic,ball_metal_red,material_incorrect,practice_2,,no,material,ball_plastic_red,4,,"[5760, 'no']",,practice_trial,ball_metal_green,,[],37,Yes,No,,0,1,Male,English,Chrome,Windows,864,1536,4.245416666666666,
1483,list1,metal,bowl_glass_blue,material_correct,practice_3,,yes,material,bowl_metal_blue,2,,"[4541, 'yes']",,practice_trial,bowl_glass_green,,[],37,Yes,No,,0,1,Male,English,Chrome,Windows,864,1536,4.245416666666666,
1483,list1,blue,vase_glass_green,color_incorrect,practice_4,,no,color,vase_glass_blue,3,,"[3568, 'no']",,practice_trial,vase_wood_green,,[],37,Yes,No,,0,1,Male,English,Chrome,Windows,864,1536,4.245416666666666,
1483,list1,green,bag_plastic_blue,color_incorrect,practice_5,,no,color,bag_plastic_green,4,,"[2881, 'no']",,practice_trial,bag_paper_blue,,[],37,Yes,No,,0,1,Male,English,Chrome,Windows,864,1536,4.245416666666666,
1483,list1,wooden,door_steel_yellow,material_correct,practice_6,,yes,material,door_steel_red,1,,"[5183, 'yes']",,practice_trial,door_wood_yellow,,[],37,Yes,No,,0,1,Male,English,Chrome,Windows,864,1536,4.245416666666666,
1483,list1,metal,table_metal_green,material1_correct,tmso_tmg_twg,tmso_tmg_twg_1,yes,material,table_wood_green,2,,"[6975, 'yes']",,11,table_metal_silver_original,,[],37,Yes,No,,0,1,Male,English,Chrome,Windows,864,1536,4.245416666666666,
1483,list1,green,boot_leather_black_original,color1_correct,blg_blbo_brbo,blg_blbo_brbo_1,yes,color,boot_rubber_black_original,1,,"[3056, 'yes']",,12,boot_leather_green,,[],37,Yes,No,,0,1,Male,English,Chrome,Windows,864,1536,4.245416666666666,
1483,list1,green,bottle_glass_green,color1_correct,bpg_bgg_bgco,bpg_bgg_bgco_1,yes,color,bottle_glass_clear_original,2,,"[3248, 'yes']",,13,bottle_plastic_green,,[],37,Yes,No,,0,1,Male,English,Chrome,Windows,864,1536,4.245416666666666,
1483,list1,plastic,bottle_plastic_green,material2_correct,bgg_bpg_bpco,bgg_bpg_bpco_2,yes,material,bottle_plastic_clear_original,3,,"[6847, 'no']",,14,bottle_glass_green,,[],37,Yes,No,,0,1,Male,English,Chrome,Windows,864,1536,4.245416666666666,
1483,list1,metal,table_wood_blue,material1_incorrect,tmb_twb_twbo,tmb_twb_twbo_2,no,material,table_wood_brown_original,"['2', '3']",,"[7616, 'no']",,15,table_metal_blue,,[],37,Yes,No,,0,1,Male,English,Chrome,Windows,864,1536,4.245416666666666,
1483,list1,green,cup_metal_green,color1_incorrect,cpg_cmg_cmb,cpg_cmg_cmb_2,no,color,cup_metal_blue,"['3', '4']",,"[2815, 'no']",,16,cup_plastic_green,,[],37,Yes,No,,0,1,Male,English,Chrome,Windows,864,1536,4.245416666666666,
1483,list1,black,jacket_leather_purple,color2_incorrect,jdp_jlp_jlbo,jdp_jlp_jlbo_1,no,color,jacket_leather_black_original,"['3', '4']",,"[5839, 'no']",,17,jacket_denim_purple,,[],37,Yes,No,,0,1,Male,English,Chrome,Windows,864,1536,4.245416666666666,
1483,list1,wooden,table_wood_blue,material2_correct,tmb_twb_twg,tmb_twb_twg_1,yes,material,table_wood_green,3,,"[4496, 'yes']",,18,table_metal_blue,,[],37,Yes,No,,0,1,Male,English,Chrome,Windows,864,1536,4.245416666666666,
1483,list1,metal,chair_metal_green,material1_incorrect,cmp_cmg_cwg,cmp_cmg_cwg_2,no,material,chair_wood_green,"['3', '4']",,"[9776, 'yes']",,19,chair_metal_purple,,[],37,Yes,No,,0,1,Male,English,Chrome,Windows,864,1536,4.245416666666666,
1483,list1,blue,pitcher_plastic_blue,color1_correct,pmb_ppb_ppwo,pmb_ppb_ppwo_1,yes,color,pitcher_plastic_white_original,2,,"[2896, 'yes']",,20,pitcher_metal_blue,,[],37,Yes,No,,0,1,Male,English,Chrome,Windows,864,1536,4.245416666666666,
1483,list1,plastic,plate_paper_blue,material1_correct,ppbo_ppb_ppwo,ppbo_ppb_ppwo_2,yes,material,plate_paper_white_original,1,,"[5280, 'yes']",,21,plate_plastic_blue_original,,[],37,Yes,No,,0,1,Male,English,Chrome,Windows,864,1536,4.245416666666666,
1483,list1,green,boot_leather_brown,color1_incorrect,blg_blb_brb,blg_blb_brb_2,no,color,boot_rubber_brown,"['2', '3']",,"[3603, 'no']",,22,boot_leather_green,,[],37,Yes,No,,0,1,Male,English,Chrome,Windows,864,1536,4.245416666666666,
1483,list1,metal,pitcher_glass_blue,material1_incorrect,pmb_pgb_pgco,pmb_pgb_pgco_2,no,material,pitcher_glass_clear_original,"['2', '3']",,"[5501, 'no']",,23,pitcher_metal_blue,,[],37,Yes,No,,0,1,Male,English,Chrome,Windows,864,1536,4.245416666666666,
1483,list1,glass,pitcher_glass_blue,material2_correct,pmb_pgb_pgg,pmb_pgb_pgg_1,yes,material,pitcher_glass_green,3,,"[6128, 'yes']",,24,pitcher_metal_blue,,[],37,Yes,No,,0,1,Male,English,Chrome,Windows,864,1536,4.245416666666666,
1483,list1,blue,table_metal_blue,color2_incorrect,tmso_tmb_twb,tmso_tmb_twb_1,no,color,table_wood_blue,"['4', '5']",,"[5871, 'no']",,25,table_metal_silver_original,,[],37,Yes,No,,0,1,Male,English,Chrome,Windows,864,1536,4.245416666666666,
1483,list1,plastic,plate_paper_green,material2_correct,ppb_ppg_ppg,ppb_ppg_ppg_2,yes,material,plate_plastic_green,2,,"[5216, 'yes']",,26,plate_paper_blue,,[],37,Yes,No,,0,1,Male,English,Chrome,Windows,864,1536,4.245416666666666,
1483,list1,purple,chair_metal_purple,color2_correct,cmg_cmp_cpp,cmg_cmp_cpp_1,yes,color,chair_plastic_purple,3,,"[3315, 'yes']",,27,chair_metal_green,,[],37,Yes,No,,0,1,Male,English,Chrome,Windows,864,1536,4.245416666666666,
1483,list1,silver,cup_metal_green,color2_correct,cpg_cmg_cmso,cpg_cmg_cmso_1,yes,color,cup_metal_silver_original,2,,"[3533, 'yes']",,28,cup_plastic_green,,[],37,Yes,No,,0,1,Male,English,Chrome,Windows,864,1536,4.245416666666666,
1483,list1,green,spoon_wood_blue,color1_correct,swg_swb_spb,swg_swb_spb_1,yes,color,spoon_plastic_blue,1,,"[5264, 'yes']",,29,spoon_wood_green,,[],37,Yes,No,,0,1,Male,English,Chrome,Windows,864,1536,4.245416666666666,
1483,list1,blue,table_metal_green,color1_incorrect,tmb_tmg_twg,tmb_tmg_twg_2,no,color,table_wood_green,"['2', '3']",,"[4112, 'no']",,30,table_metal_blue,,[],37,Yes,No,,0,1,Male,English,Chrome,Windows,864,1536,4.245416666666666,
1483,list1,plastic,pitcher_plastic_blue,material2_incorrect,pmb_ppb_ppg,pmb_ppb_ppg_1,no,material,pitcher_plastic_green,"['4', '5']",,"[8256, 'no']",,31,pitcher_metal_blue,,[],37,Yes,No,,0,1,Male,English,Chrome,Windows,864,1536,4.245416666666666,
1483,list1,purple,chair_metal_purple,color2_incorrect,cmg_cmp_cwp,cmg_cmp_cwp_2,no,color,chair_wood_purple,"['4', '5']",,"[2416, 'no']",,32,chair_metal_green,,[],37,Yes,No,,0,1,Male,English,Chrome,Windows,864,1536,4.245416666666666,
1483,list1,glass,bottle_plastic_green,material1_incorrect,bgg_bpg_bpb,bgg_bpg_bpb_2,no,material,bottle_plastic_blue,"['2', '3']",,"[3871, 'yes']",,33,bottle_glass_green,,[],37,Yes,No,,0,1,Male,English,Chrome,Windows,864,1536,4.245416666666666,
1483,list1,metal,spoon_wood_blue,material2_incorrect,swg_swb_smb,swg_swb_smb_1,no,material,spoon_metal_blue,"['3', '4']",,"[3184, 'no']",,34,spoon_wood_green,,[],37,Yes,No,,0,1,Male,English,Chrome,Windows,864,1536,4.245416666666666,
1483,list1,green,plate_paper_blue,color2_incorrect,ppbo_ppb_ppg,ppbo_ppb_ppg_2,no,color,plate_paper_green,"['3', '4']",,"[2815, 'no']",,35,plate_plastic_blue_original,,[],37,Yes,No,,0,1,Male,English,Chrome,Windows,864,1536,4.245416666666666,
1483,list1,denim,jacket_leather_purple,material1_correct,jdp_jlp_jlg,jdp_jlp_jlg_1,yes,material,jacket_leather_green,1,,"[3040, 'yes']",,36,jacket_denim_purple,,[],37,Yes,No,,0,1,Male,English,Chrome,Windows,864,1536,4.245416666666666,
1483,list1,blue,plate_plastic_blue_original,color1_incorrect,ppb_ppbo_ppg,ppb_ppbo_ppg_1,no,color,plate_plastic_green,"['3', '4']",,"[6672, 'no']",,37,plate_paper_blue,,[],37,Yes,No,,0,1,Male,English,Chrome,Windows,864,1536,4.245416666666666,
1483,list1,pink,plate_plastic_blue_original,color2_correct,ppb_ppbo_ppp,ppb_ppbo_ppp_2,yes,color,plate_plastic_pink,2,,"[2511, 'yes']",,38,plate_paper_blue,,[],37,Yes,No,,0,1,Male,English,Chrome,Windows,864,1536,4.245416666666666,
1483,list1,glass,bottle_glass_green,material2_incorrect,bpg_bgg_bgb,bpg_bgg_bgb_2,no,material,bottle_glass_blue,"['4', '5']",,"[5136, 'yes']",,39,bottle_plastic_green,,[],37,Yes,No,,0,1,Male,English,Chrome,Windows,864,1536,4.245416666666666,
1483,list1,blue,table_metal_blue,color2_correct,tmg_tmb_twb,tmg_tmb_twb_2,yes,color,table_wood_blue,3,,"[2800, 'yes']",,40,table_metal_green,,[],37,Yes,No,,0,1,Male,English,Chrome,Windows,864,1536,4.245416666666666,
1483,list1,metal,chair_metal_green,material1_correct,cmp_cmg_cpg,cmp_cmg_cpg_2,yes,material,chair_plastic_green,2,,"[5712, 'yes']",,41,chair_metal_purple,,[],37,Yes,No,,0,1,Male,English,Chrome,Windows,864,1536,4.245416666666666,
1396,list1,,,,,,,,,,Elizabeth,Elizabeth,0,1,,bot_check,[],21,Yes,No,,2,1,Female,English,Chrome,Mac,900,1440,2.1100333333333334,
1396,list1,blue,box_wood_blue,color_correct,practice_1,,yes,color,box_wood_brown,2,,"[3899, 'yes']",,practice_trial,box_cardboard_blue,,[],21,Yes,No,,2,1,Female,English,Chrome,Mac,900,1440,2.1100333333333334,
1396,list1,plastic,ball_metal_red,material_incorrect,practice_2,,no,material,ball_plastic_red,4,,"[1591, 'yes']",,practice_trial,ball_metal_green,,[],21,Yes,No,,2,1,Female,English,Chrome,Mac,900,1440,2.1100333333333334,
1396,list1,metal,bowl_glass_blue,material_correct,practice_3,,yes,material,bowl_metal_blue,2,,"[2072, 'yes']",,practice_trial,bowl_glass_green,,[],21,Yes,No,,2,1,Female,English,Chrome,Mac,900,1440,2.1100333333333334,
1396,list1,blue,vase_glass_green,color_incorrect,practice_4,,no,color,vase_glass_blue,3,,"[4055, 'no']",,practice_trial,vase_wood_green,,[],21,Yes,No,,2,1,Female,English,Chrome,Mac,900,1440,2.1100333333333334,
1396,list1,green,bag_plastic_blue,color_incorrect,practice_5,,no,color,bag_plastic_green,4,,"[2449, 'no']",,practice_trial,bag_paper_blue,,[],21,Yes,No,,2,1,Female,English,Chrome,Mac,900,1440,2.1100333333333334,
1396,list1,wooden,door_steel_yellow,material_correct,practice_6,,yes,material,door_steel_red,1,,"[2905, 'yes']",,practice_trial,door_wood_yellow,,[],21,Yes,No,,2,1,Female,English,Chrome,Mac,900,1440,2.1100333333333334,
1396,list1,blue,table_metal_green,color1_incorrect,tmb_tmg_twg,tmb_tmg_twg_2,no,color,table_wood_green,"['2', '3']",,"[2138, 'no']",,11,table_metal_blue,,[],21,Yes,No,,2,1,Female,English,Chrome,Mac,900,1440,2.1100333333333334,
1396,list1,blue,table_metal_blue,color2_incorrect,tmso_tmb_twb,tmso_tmb_twb_1,no,color,table_wood_blue,"['4', '5']",,"[1643, 'no']",,12,table_metal_silver_original,,[],21,Yes,No,,2,1,Female,English,Chrome,Mac,900,1440,2.1100333333333334,
1396,list1,plastic,plate_paper_blue,material1_correct,ppbo_ppb_ppwo,ppbo_ppb_ppwo_2,yes,material,plate_paper_white_original,1,,"[2975, 'yes']",,13,plate_plastic_blue_original,,[],21,Yes,No,,2,1,Female,English,Chrome,Mac,900,1440,2.1100333333333334,
1396,list1,plastic,bottle_plastic_green,material2_correct,bgg_bpg_bpco,bgg_bpg_bpco_2,yes,material,bottle_plastic_clear_original,3,,"[2699, 'yes']",,14,bottle_glass_green,,[],21,Yes,No,,2,1,Female,English,Chrome,Mac,900,1440,2.1100333333333334,
1396,list1,pink,plate_plastic_blue_original,color2_correct,ppb_ppbo_ppp,ppb_ppbo_ppp_1,yes,color,plate_plastic_pink,2,,"[2069, 'no']",,15,plate_paper_blue,,[],21,Yes,No,,2,1,Female,English,Chrome,Mac,900,1440,2.1100333333333334,
1396,list1,green,cup_metal_green,color1_incorrect,cpg_cmg_cmb,cpg_cmg_cmb_2,no,color,cup_metal_blue,"['3', '4']",,"[2770, 'no']",,16,cup_plastic_green,,[],21,Yes,No,,2,1,Female,English,Chrome,Mac,900,1440,2.1100333333333334,
1396,list1,green,plate_paper_blue,color2_incorrect,ppbo_ppb_ppg,ppbo_ppb_ppg_1,no,color,plate_paper_green,"['3', '4']",,"[1974, 'no']",,17,plate_plastic_blue_original,,[],21,Yes,No,,2,1,Female,English,Chrome,Mac,900,1440,2.1100333333333334,
1396,list1,glass,bottle_plastic_green,material1_incorrect,bgg_bpg_bpb,bgg_bpg_bpb_2,no,material,bottle_plastic_blue,"['2', '3']",,"[2900, 'no']",,18,bottle_glass_green,,[],21,Yes,No,,2,1,Female,English,Chrome,Mac,900,1440,2.1100333333333334,
1396,list1,metal,table_wood_blue,material1_incorrect,tmb_twb_twbo,tmb_twb_twbo_2,no,material,table_wood_brown_original,"['2', '3']",,"[2423, 'no']",,19,table_metal_blue,,[],21,Yes,No,,2,1,Female,English,Chrome,Mac,900,1440,2.1100333333333334,
1396,list1,blue,plate_plastic_blue_original,color1_incorrect,ppb_ppbo_ppg,ppb_ppbo_ppg_1,no,color,plate_plastic_green,"['3', '4']",,"[2314, 'no']",,20,plate_paper_blue,,[],21,Yes,No,,2,1,Female,English,Chrome,Mac,900,1440,2.1100333333333334,
1396,list1,wooden,table_wood_blue,material2_correct,tmb_twb_twg,tmb_twb_twg_1,yes,material,table_wood_green,3,,"[2427, 'yes']",,21,table_metal_blue,,[],21,Yes,No,,2,1,Female,English,Chrome,Mac,900,1440,2.1100333333333334,
1396,list1,blue,table_metal_blue,color2_correct,tmg_tmb_twb,tmg_tmb_twb_1,yes,color,table_wood_blue,3,,"[2175, 'yes']",,22,table_metal_green,,[],21,Yes,No,,2,1,Female,English,Chrome,Mac,900,1440,2.1100333333333334,
1396,list1,metal,table_metal_green,material1_correct,tmso_tmg_twg,tmso_tmg_twg_2,yes,material,table_wood_green,2,,"[3032, 'yes']",,23,table_metal_silver_original,,[],21,Yes,No,,2,1,Female,English,Chrome,Mac,900,1440,2.1100333333333334,
1396,list1,silver,cup_metal_green,color2_correct,cpg_cmg_cmso,cpg_cmg_cmso_1,yes,color,cup_metal_silver_original,2,,"[2337, 'yes']",,24,cup_plastic_green,,[],21,Yes,No,,2,1,Female,English,Chrome,Mac,900,1440,2.1100333333333334,
1396,list1,green,boot_leather_black_original,color1_correct,blg_blbo_brbo,blg_blbo_brbo_2,yes,color,boot_rubber_black_original,1,,"[2179, 'yes']",,25,boot_leather_green,,[],21,Yes,No,,2,1,Female,English,Chrome,Mac,900,1440,2.1100333333333334,
1396,list1,plastic,plate_paper_green,material2_correct,ppb_ppg_ppg,ppb_ppg_ppg_2,yes,material,plate_plastic_green,2,,"[2030, 'yes']",,26,plate_paper_blue,,[],21,Yes,No,,2,1,Female,English,Chrome,Mac,900,1440,2.1100333333333334,
1396,list1,glass,bottle_glass_green,material2_incorrect,bpg_bgg_bgb,bpg_bgg_bgb_1,no,material,bottle_glass_blue,"['4', '5']",,"[2459, 'no']",,27,bottle_plastic_green,,[],21,Yes,No,,2,1,Female,English,Chrome,Mac,900,1440,2.1100333333333334,
1396,list1,blue,pitcher_plastic_blue,color1_correct,pmb_ppb_ppwo,pmb_ppb_ppwo_2,yes,color,pitcher_plastic_white_original,2,,"[2016, 'yes']",,28,pitcher_metal_blue,,[],21,Yes,No,,2,1,Female,English,Chrome,Mac,900,1440,2.1100333333333334,
1396,list1,denim,jacket_leather_purple,material1_correct,jdp_jlp_jlg,jdp_jlp_jlg_2,yes,material,jacket_leather_green,1,,"[2486, 'yes']",,29,jacket_denim_purple,,[],21,Yes,No,,2,1,Female,English,Chrome,Mac,900,1440,2.1100333333333334,
1396,list1,metal,chair_metal_green,material1_correct,cmp_cmg_cpg,cmp_cmg_cpg_1,yes,material,chair_plastic_green,2,,"[2023, 'yes']",,30,chair_metal_purple,,[],21,Yes,No,,2,1,Female,English,Chrome,Mac,900,1440,2.1100333333333334,
1396,list1,purple,chair_metal_purple,color2_incorrect,cmg_cmp_cwp,cmg_cmp_cwp_1,no,color,chair_wood_purple,"['4', '5']",,"[2110, 'no']",,31,chair_metal_green,,[],21,Yes,No,,2,1,Female,English,Chrome,Mac,900,1440,2.1100333333333334,
1396,list1,metal,chair_metal_green,material1_incorrect,cmp_cmg_cwg,cmp_cmg_cwg_1,no,material,chair_wood_green,"['3', '4']",,"[2409, 'no']",,32,chair_metal_purple,,[],21,Yes,No,,2,1,Female,English,Chrome,Mac,900,1440,2.1100333333333334,
1396,list1,green,boot_leather_brown,color1_incorrect,blg_blb_brb,blg_blb_brb_2,no,color,boot_rubber_brown,"['2', '3']",,"[2113, 'no']",,33,boot_leather_green,,[],21,Yes,No,,2,1,Female,English,Chrome,Mac,900,1440,2.1100333333333334,
1396,list1,glass,pitcher_glass_blue,material2_correct,pmb_pgb_pgg,pmb_pgb_pgg_2,yes,material,pitcher_glass_green,3,,"[3033, 'yes']",,34,pitcher_metal_blue,,[],21,Yes,No,,2,1,Female,English,Chrome,Mac,900,1440,2.1100333333333334,
1396,list1,green,bottle_glass_green,color1_correct,bpg_bgg_bgco,bpg_bgg_bgco_2,yes,color,bottle_glass_clear_original,2,,"[1977, 'yes']",,35,bottle_plastic_green,,[],21,Yes,No,,2,1,Female,English,Chrome,Mac,900,1440,2.1100333333333334,
1396,list1,purple,chair_metal_purple,color2_correct,cmg_cmp_cpp,cmg_cmp_cpp_2,yes,color,chair_plastic_purple,3,,"[1780, 'yes']",,36,chair_metal_green,,[],21,Yes,No,,2,1,Female,English,Chrome,Mac,900,1440,2.1100333333333334,
1396,list1,metal,pitcher_glass_blue,material1_incorrect,pmb_pgb_pgco,pmb_pgb_pgco_1,no,material,pitcher_glass_clear_original,"['2', '3']",,"[2782, 'no']",,37,pitcher_metal_blue,,[],21,Yes,No,,2,1,Female,English,Chrome,Mac,900,1440,2.1100333333333334,
1396,list1,green,spoon_wood_blue,color1_correct,swg_swb_spb,swg_swb_spb_1,yes,color,spoon_plastic_blue,1,,"[2109, 'yes']",,38,spoon_wood_green,,[],21,Yes,No,,2,1,Female,English,Chrome,Mac,900,1440,2.1100333333333334,
1396,list1,plastic,pitcher_plastic_blue,material2_incorrect,pmb_ppb_ppg,pmb_ppb_ppg_2,no,material,pitcher_plastic_green,"['4', '5']",,"[2416, 'no']",,39,pitcher_metal_blue,,[],21,Yes,No,,2,1,Female,English,Chrome,Mac,900,1440,2.1100333333333334,
1396,list1,black,jacket_leather_purple,color2_incorrect,jdp_jlp_jlbo,jdp_jlp_jlbo_1,no,color,jacket_leather_black_original,"['3', '4']",,"[1966, 'no']",,40,jacket_denim_purple,,[],21,Yes,No,,2,1,Female,English,Chrome,Mac,900,1440,2.1100333333333334,
1396,list1,metal,spoon_wood_blue,material2_incorrect,swg_swb_smb,swg_swb_smb_2,no,material,spoon_metal_blue,"['3', '4']",,"[2375, 'no']",,41,spoon_wood_green,,[],21,Yes,No,,2,1,Female,English,Chrome,Mac,900,1440,2.1100333333333334,
1423,list1,,,,,,,,,,Barbara,Barbara,0,1,,bot_check,[],35,Yes,No,,3,1,Male,English,Chrome,Windows,1080,1920,3.9968666666666666,
1423,list1,blue,box_wood_blue,color_correct,practice_1,,yes,color,box_wood_brown,2,,"[3521, 'yes']",,practice_trial,box_cardboard_blue,,[],35,Yes,No,,3,1,Male,English,Chrome,Windows,1080,1920,3.9968666666666666,
1423,list1,plastic,ball_metal_red,material_incorrect,practice_2,,no,material,ball_plastic_red,4,,"[3712, 'yes']",,practice_trial,ball_metal_green,,[],35,Yes,No,,3,1,Male,English,Chrome,Windows,1080,1920,3.9968666666666666,
1423,list1,metal,bowl_glass_blue,material_correct,practice_3,,yes,material,bowl_metal_blue,2,,"[3285, 'yes']",,practice_trial,bowl_glass_green,,[],35,Yes,No,,3,1,Male,English,Chrome,Windows,1080,1920,3.9968666666666666,
1423,list1,blue,vase_glass_green,color_incorrect,practice_4,,no,color,vase_glass_blue,3,,"[2955, 'no']",,practice_trial,vase_wood_green,,[],35,Yes,No,,3,1,Male,English,Chrome,Windows,1080,1920,3.9968666666666666,
1423,list1,green,bag_plastic_blue,color_incorrect,practice_5,,no,color,bag_plastic_green,4,,"[2641, 'no']",,practice_trial,bag_paper_blue,,[],35,Yes,No,,3,1,Male,English,Chrome,Windows,1080,1920,3.9968666666666666,
1423,list1,wooden,door_steel_yellow,material_correct,practice_6,,yes,material,door_steel_red,1,,"[3993, 'yes']",,practice_trial,door_wood_yellow,,[],35,Yes,No,,3,1,Male,English,Chrome,Windows,1080,1920,3.9968666666666666,
1423,list1,metal,chair_metal_green,material1_correct,cmp_cmg_cpg,cmp_cmg_cpg_2,yes,material,chair_plastic_green,2,,"[3284, 'yes']",,11,chair_metal_purple,,[],35,Yes,No,,3,1,Male,English,Chrome,Windows,1080,1920,3.9968666666666666,
1423,list1,blue,table_metal_blue,color2_correct,tmg_tmb_twb,tmg_tmb_twb_2,yes,color,table_wood_blue,3,,"[2293, 'yes']",,12,table_metal_green,,[],35,Yes,No,,3,1,Male,English,Chrome,Windows,1080,1920,3.9968666666666666,
1423,list1,metal,table_wood_blue,material1_incorrect,tmb_twb_twbo,tmb_twb_twbo_2,no,material,table_wood_brown_original,"['2', '3']",,"[3073, 'no']",,13,table_metal_blue,,[],35,Yes,No,,3,1,Male,English,Chrome,Windows,1080,1920,3.9968666666666666,
1423,list1,silver,cup_metal_green,color2_correct,cpg_cmg_cmso,cpg_cmg_cmso_1,yes,color,cup_metal_silver_original,2,,"[2503, 'yes']",,14,cup_plastic_green,,[],35,Yes,No,,3,1,Male,English,Chrome,Windows,1080,1920,3.9968666666666666,
1423,list1,pink,plate_plastic_blue_original,color2_correct,ppb_ppbo_ppp,ppb_ppbo_ppp_1,yes,color,plate_plastic_pink,2,,"[1804, 'yes']",,15,plate_paper_blue,,[],35,Yes,No,,3,1,Male,English,Chrome,Windows,1080,1920,3.9968666666666666,
1423,list1,glass,pitcher_glass_blue,material2_correct,pmb_pgb_pgg,pmb_pgb_pgg_2,yes,material,pitcher_glass_green,3,,"[3267, 'yes']",,16,pitcher_metal_blue,,[],35,Yes,No,,3,1,Male,English,Chrome,Windows,1080,1920,3.9968666666666666,
1423,list1,metal,pitcher_glass_blue,material1_incorrect,pmb_pgb_pgco,pmb_pgb_pgco_2,no,material,pitcher_glass_clear_original,"['2', '3']",,"[3695, 'yes']",,17,pitcher_metal_blue,,[],35,Yes,No,,3,1,Male,English,Chrome,Windows,1080,1920,3.9968666666666666,
1423,list1,wooden,table_wood_blue,material2_correct,tmb_twb_twg,tmb_twb_twg_2,yes,material,table_wood_green,3,,"[3638, 'yes']",,18,table_metal_blue,,[],35,Yes,No,,3,1,Male,English,Chrome,Windows,1080,1920,3.9968666666666666,
1423,list1,plastic,plate_paper_blue,material1_correct,ppbo_ppb_ppwo,ppbo_ppb_ppwo_1,yes,material,plate_paper_white_original,1,,"[2798, 'yes']",,19,plate_plastic_blue_original,,[],35,Yes,No,,3,1,Male,English,Chrome,Windows,1080,1920,3.9968666666666666,
1423,list1,glass,bottle_glass_green,material2_incorrect,bpg_bgg_bgb,bpg_bgg_bgb_1,no,material,bottle_glass_blue,"['4', '5']",,"[2992, 'no']",,20,bottle_plastic_green,,[],35,Yes,No,,3,1,Male,English,Chrome,Windows,1080,1920,3.9968666666666666,
1423,list1,blue,table_metal_blue,color2_incorrect,tmso_tmb_twb,tmso_tmb_twb_1,no,color,table_wood_blue,"['4', '5']",,"[2154, 'no']",,21,table_metal_silver_original,,[],35,Yes,No,,3,1,Male,English,Chrome,Windows,1080,1920,3.9968666666666666,
1423,list1,green,spoon_wood_blue,color1_correct,swg_swb_spb,swg_swb_spb_1,yes,color,spoon_plastic_blue,1,,"[2173, 'yes']",,22,spoon_wood_green,,[],35,Yes,No,,3,1,Male,English,Chrome,Windows,1080,1920,3.9968666666666666,
1423,list1,green,plate_paper_blue,color2_incorrect,ppbo_ppb_ppg,ppbo_ppb_ppg_2,no,color,plate_paper_green,"['3', '4']",,"[2296, 'no']",,23,plate_plastic_blue_original,,[],35,Yes,No,,3,1,Male,English,Chrome,Windows,1080,1920,3.9968666666666666,
1423,list1,green,bottle_glass_green,color1_correct,bpg_bgg_bgco,bpg_bgg_bgco_2,yes,color,bottle_glass_clear_original,2,,"[1491, 'yes']",,24,bottle_plastic_green,,[],35,Yes,No,,3,1,Male,English,Chrome,Windows,1080,1920,3.9968666666666666,
1423,list1,denim,jacket_leather_purple,material1_correct,jdp_jlp_jlg,jdp_jlp_jlg_2,yes,material,jacket_leather_green,1,,"[2915, 'yes']",,25,jacket_denim_purple,,[],35,Yes,No,,3,1,Male,English,Chrome,Windows,1080,1920,3.9968666666666666,
1423,list1,blue,table_metal_green,color1_incorrect,tmb_tmg_twg,tmb_tmg_twg_1,no,color,table_wood_green,"['2', '3']",,"[1723, 'no']",,26,table_metal_blue,,[],35,Yes,No,,3,1,Male,English,Chrome,Windows,1080,1920,3.9968666666666666,
1423,list1,metal,table_metal_green,material1_correct,tmso_tmg_twg,tmso_tmg_twg_1,yes,material,table_wood_green,2,,"[2155, 'yes']",,27,table_metal_silver_original,,[],35,Yes,No,,3,1,Male,English,Chrome,Windows,1080,1920,3.9968666666666666,
1423,list1,plastic,plate_paper_green,material2_correct,ppb_ppg_ppg,ppb_ppg_ppg_1,yes,material,plate_plastic_green,2,,"[3716, 'no']",,28,plate_paper_blue,,[],35,Yes,No,,3,1,Male,English,Chrome,Windows,1080,1920,3.9968666666666666,
1423,list1,metal,spoon_wood_blue,material2_incorrect,swg_swb_smb,swg_swb_smb_1,no,material,spoon_metal_blue,"['3', '4']",,"[3224, 'yes']",,29,spoon_wood_green,,[],35,Yes,No,,3,1,Male,English,Chrome,Windows,1080,1920,3.9968666666666666,
1423,list1,black,jacket_leather_purple,color2_incorrect,jdp_jlp_jlbo,jdp_jlp_jlbo_2,no,color,jacket_leather_black_original,"['3', '4']",,"[2875, 'no']",,30,jacket_denim_purple,,[],35,Yes,No,,3,1,Male,English,Chrome,Windows,1080,1920,3.9968666666666666,
1423,list1,blue,pitcher_plastic_blue,color1_correct,pmb_ppb_ppwo,pmb_ppb_ppwo_2,yes,color,pitcher_plastic_white_original,2,,"[1978, 'yes']",,31,pitcher_metal_blue,,[],35,Yes,No,,3,1,Male,English,Chrome,Windows,1080,1920,3.9968666666666666,
1423,list1,purple,chair_metal_purple,color2_correct,cmg_cmp_cpp,cmg_cmp_cpp_1,yes,color,chair_plastic_purple,3,,"[1666, 'yes']",,32,chair_metal_green,,[],35,Yes,No,,3,1,Male,English,Chrome,Windows,1080,1920,3.9968666666666666,
1423,list1,green,boot_leather_black_original,color1_correct,blg_blbo_brbo,blg_blbo_brbo_2,yes,color,boot_rubber_black_original,1,,"[1667, 'yes']",,33,boot_leather_green,,[],35,Yes,No,,3,1,Male,English,Chrome,Windows,1080,1920,3.9968666666666666,
1423,list1,plastic,pitcher_plastic_blue,material2_incorrect,pmb_ppb_ppg,pmb_ppb_ppg_2,no,material,pitcher_plastic_green,"['4', '5']",,"[3422, 'no']",,34,pitcher_metal_blue,,[],35,Yes,No,,3,1,Male,English,Chrome,Windows,1080,1920,3.9968666666666666,
1423,list1,purple,chair_metal_purple,color2_incorrect,cmg_cmp_cwp,cmg_cmp_cwp_2,no,color,chair_wood_purple,"['4', '5']",,"[2761, 'no']",,35,chair_metal_green,,[],35,Yes,No,,3,1,Male,English,Chrome,Windows,1080,1920,3.9968666666666666,
1423,list1,metal,chair_metal_green,material1_incorrect,cmp_cmg_cwg,cmp_cmg_cwg_1,no,material,chair_wood_green,"['3', '4']",,"[2135, 'no']",,36,chair_metal_purple,,[],35,Yes,No,,3,1,Male,English,Chrome,Windows,1080,1920,3.9968666666666666,
1423,list1,green,boot_leather_brown,color1_incorrect,blg_blb_brb,blg_blb_brb_1,no,color,boot_rubber_brown,"['2', '3']",,"[2705, 'no']",,37,boot_leather_green,,[],35,Yes,No,,3,1,Male,English,Chrome,Windows,1080,1920,3.9968666666666666,
1423,list1,glass,bottle_plastic_green,material1_incorrect,bgg_bpg_bpb,bgg_bpg_bpb_2,no,material,bottle_plastic_blue,"['2', '3']",,"[2956, 'no']",,38,bottle_glass_green,,[],35,Yes,No,,3,1,Male,English,Chrome,Windows,1080,1920,3.9968666666666666,
1423,list1,plastic,bottle_plastic_green,material2_correct,bgg_bpg_bpco,bgg_bpg_bpco_2,yes,material,bottle_plastic_clear_original,3,,"[3227, 'yes']",,39,bottle_glass_green,,[],35,Yes,No,,3,1,Male,English,Chrome,Windows,1080,1920,3.9968666666666666,
1423,list1,blue,plate_plastic_blue_original,color1_incorrect,ppb_ppbo_ppg,ppb_ppbo_ppg_1,no,color,plate_plastic_green,"['3', '4']",,"[1998, 'no']",,40,plate_paper_blue,,[],35,Yes,No,,3,1,Male,English,Chrome,Windows,1080,1920,3.9968666666666666,
1423,list1,green,cup_metal_green,color1_incorrect,cpg_cmg_cmb,cpg_cmg_cmb_1,no,color,cup_metal_blue,"['3', '4']",,"[1686, 'no']",,41,cup_plastic_green,,[],35,Yes,No,,3,1,Male,English,Chrome,Windows,1080,1920,3.9968666666666666,
1231,list1,,,,,,,,,,Patricia,Patricia,0,1,,bot_check,[],30,Yes,No,Was a fun experiment I suppose.,1,1,Male,English,Firefox,Windows,1080,1920,3.1599166666666667,
1231,list1,blue,box_wood_blue,color_correct,practice_1,,yes,color,box_wood_brown,2,,"[4768, 'yes']",,practice_trial,box_cardboard_blue,,[],30,Yes,No,Was a fun experiment I suppose.,1,1,Male,English,Firefox,Windows,1080,1920,3.1599166666666667,
1231,list1,plastic,ball_metal_red,material_incorrect,practice_2,,no,material,ball_plastic_red,4,,"[9438, 'yes']",,practice_trial,ball_metal_green,,[],30,Yes,No,Was a fun experiment I suppose.,1,1,Male,English,Firefox,Windows,1080,1920,3.1599166666666667,
1231,list1,metal,bowl_glass_blue,material_correct,practice_3,,yes,material,bowl_metal_blue,2,,"[3295, 'yes']",,practice_trial,bowl_glass_green,,[],30,Yes,No,Was a fun experiment I suppose.,1,1,Male,English,Firefox,Windows,1080,1920,3.1599166666666667,
1231,list1,blue,vase_glass_green,color_incorrect,practice_4,,no,color,vase_glass_blue,3,,"[5104, 'no']",,practice_trial,vase_wood_green,,[],30,Yes,No,Was a fun experiment I suppose.,1,1,Male,English,Firefox,Windows,1080,1920,3.1599166666666667,
1231,list1,green,bag_plastic_blue,color_incorrect,practice_5,,no,color,bag_plastic_green,4,,"[3408, 'no']",,practice_trial,bag_paper_blue,,[],30,Yes,No,Was a fun experiment I suppose.,1,1,Male,English,Firefox,Windows,1080,1920,3.1599166666666667,
1231,list1,wooden,door_steel_yellow,material_correct,practice_6,,yes,material,door_steel_red,1,,"[4575, 'no']",,practice_trial,door_wood_yellow,,[],30,Yes,No,Was a fun experiment I suppose.,1,1,Male,English,Firefox,Windows,1080,1920,3.1599166666666667,
1231,list1,purple,chair_metal_purple,color2_correct,cmg_cmp_cpp,cmg_cmp_cpp_1,yes,color,chair_plastic_purple,3,,"[2416, 'yes']",,11,chair_metal_green,,[],30,Yes,No,Was a fun experiment I suppose.,1,1,Male,English,Firefox,Windows,1080,1920,3.1599166666666667,
1231,list1,green,plate_paper_blue,color2_incorrect,ppbo_ppb_ppg,ppbo_ppb_ppg_2,no,color,plate_paper_green,"['3', '4']",,"[3391, 'no']",,12,plate_plastic_blue_original,,[],30,Yes,No,Was a fun experiment I suppose.,1,1,Male,English,Firefox,Windows,1080,1920,3.1599166666666667,
1231,list1,green,cup_metal_green,color1_incorrect,cpg_cmg_cmb,cpg_cmg_cmb_2,no,color,cup_metal_blue,"['3', '4']",,"[2352, 'no']",,13,cup_plastic_green,,[],30,Yes,No,Was a fun experiment I suppose.,1,1,Male,English,Firefox,Windows,1080,1920,3.1599166666666667,
1231,list1,blue,plate_plastic_blue_original,color1_incorrect,ppb_ppbo_ppg,ppb_ppbo_ppg_1,no,color,plate_plastic_green,"['3', '4']",,"[2688, 'no']",,14,plate_paper_blue,,[],30,Yes,No,Was a fun experiment I suppose.,1,1,Male,English,Firefox,Windows,1080,1920,3.1599166666666667,
1231,list1,blue,table_metal_blue,color2_correct,tmg_tmb_twb,tmg_tmb_twb_2,yes,color,table_wood_blue,3,,"[2494, 'yes']",,15,table_metal_green,,[],30,Yes,No,Was a fun experiment I suppose.,1,1,Male,English,Firefox,Windows,1080,1920,3.1599166666666667,
1231,list1,plastic,plate_paper_blue,material1_correct,ppbo_ppb_ppwo,ppbo_ppb_ppwo_2,yes,material,plate_paper_white_original,1,,"[2384, 'no']",,16,plate_plastic_blue_original,,[],30,Yes,No,Was a fun experiment I suppose.,1,1,Male,English,Firefox,Windows,1080,1920,3.1599166666666667,
1231,list1,green,bottle_glass_green,color1_correct,bpg_bgg_bgco,bpg_bgg_bgco_2,yes,color,bottle_glass_clear_original,2,,"[2926, 'yes']",,17,bottle_plastic_green,,[],30,Yes,No,Was a fun experiment I suppose.,1,1,Male,English,Firefox,Windows,1080,1920,3.1599166666666667,
1231,list1,green,spoon_wood_blue,color1_correct,swg_swb_spb,swg_swb_spb_2,yes,color,spoon_plastic_blue,1,,"[2208, 'yes']",,18,spoon_wood_green,,[],30,Yes,No,Was a fun experiment I suppose.,1,1,Male,English,Firefox,Windows,1080,1920,3.1599166666666667,
1231,list1,silver,cup_metal_green,color2_correct,cpg_cmg_cmso,cpg_cmg_cmso_1,yes,color,cup_metal_silver_original,2,,"[4687, 'no']",,19,cup_plastic_green,,[],30,Yes,No,Was a fun experiment I suppose.,1,1,Male,English,Firefox,Windows,1080,1920,3.1599166666666667,
1231,list1,glass,bottle_plastic_green,material1_incorrect,bgg_bpg_bpb,bgg_bpg_bpb_1,no,material,bottle_plastic_blue,"['2', '3']",,"[5104, 'yes']",,20,bottle_glass_green,,[],30,Yes,No,Was a fun experiment I suppose.,1,1,Male,English,Firefox,Windows,1080,1920,3.1599166666666667,
1231,list1,plastic,pitcher_plastic_blue,material2_incorrect,pmb_ppb_ppg,pmb_ppb_ppg_1,no,material,pitcher_plastic_green,"['4', '5']",,"[4448, 'no']",,21,pitcher_metal_blue,,[],30,Yes,No,Was a fun experiment I suppose.,1,1,Male,English,Firefox,Windows,1080,1920,3.1599166666666667,
1231,list1,metal,chair_metal_green,material1_correct,cmp_cmg_cpg,cmp_cmg_cpg_2,yes,material,chair_plastic_green,2,,"[3776, 'yes']",,22,chair_metal_purple,,[],30,Yes,No,Was a fun experiment I suppose.,1,1,Male,English,Firefox,Windows,1080,1920,3.1599166666666667,
1231,list1,blue,table_metal_blue,color2_incorrect,tmso_tmb_twb,tmso_tmb_twb_1,no,color,table_wood_blue,"['4', '5']",,"[2863, 'no']",,23,table_metal_silver_original,,[],30,Yes,No,Was a fun experiment I suppose.,1,1,Male,English,Firefox,Windows,1080,1920,3.1599166666666667,
1231,list1,metal,table_metal_green,material1_correct,tmso_tmg_twg,tmso_tmg_twg_2,yes,material,table_wood_green,2,,"[2975, 'yes']",,24,table_metal_silver_original,,[],30,Yes,No,Was a fun experiment I suppose.,1,1,Male,English,Firefox,Windows,1080,1920,3.1599166666666667,
1231,list1,purple,chair_metal_purple,color2_incorrect,cmg_cmp_cwp,cmg_cmp_cwp_2,no,color,chair_wood_purple,"['4', '5']",,"[2528, 'no']",,25,chair_metal_green,,[],30,Yes,No,Was a fun experiment I suppose.,1,1,Male,English,Firefox,Windows,1080,1920,3.1599166666666667,
1231,list1,green,boot_leather_brown,color1_incorrect,blg_blb_brb,blg_blb_brb_1,no,color,boot_rubber_brown,"['2', '3']",,"[2256, 'no']",,26,boot_leather_green,,[],30,Yes,No,Was a fun experiment I suppose.,1,1,Male,English,Firefox,Windows,1080,1920,3.1599166666666667,
1231,list1,glass,pitcher_glass_blue,material2_correct,pmb_pgb_pgg,pmb_pgb_pgg_2,yes,material,pitcher_glass_green,3,,"[2590, 'yes']",,27,pitcher_metal_blue,,[],30,Yes,No,Was a fun experiment I suppose.,1,1,Male,English,Firefox,Windows,1080,1920,3.1599166666666667,
1231,list1,blue,pitcher_plastic_blue,color1_correct,pmb_ppb_ppwo,pmb_ppb_ppwo_2,yes,color,pitcher_plastic_white_original,2,,"[2352, 'yes']",,28,pitcher_metal_blue,,[],30,Yes,No,Was a fun experiment I suppose.,1,1,Male,English,Firefox,Windows,1080,1920,3.1599166666666667,
1231,list1,metal,spoon_wood_blue,material2_incorrect,swg_swb_smb,swg_swb_smb_2,no,material,spoon_metal_blue,"['3', '4']",,"[4288, 'no']",,29,spoon_wood_green,,[],30,Yes,No,Was a fun experiment I suppose.,1,1,Male,English,Firefox,Windows,1080,1920,3.1599166666666667,
1231,list1,plastic,bottle_plastic_green,material2_correct,bgg_bpg_bpco,bgg_bpg_bpco_1,yes,material,bottle_plastic_clear_original,3,,"[3088, 'yes']",,30,bottle_glass_green,,[],30,Yes,No,Was a fun experiment I suppose.,1,1,Male,English,Firefox,Windows,1080,1920,3.1599166666666667,
1231,list1,metal,table_wood_blue,material1_incorrect,tmb_twb_twbo,tmb_twb_twbo_2,no,material,table_wood_brown_original,"['2', '3']",,"[3696, 'no']",,31,table_metal_blue,,[],30,Yes,No,Was a fun experiment I suppose.,1,1,Male,English,Firefox,Windows,1080,1920,3.1599166666666667,
1231,list1,plastic,plate_paper_green,material2_correct,ppb_ppg_ppg,ppb_ppg_ppg_1,yes,material,plate_plastic_green,2,,"[4415, 'yes']",,32,plate_paper_blue,,[],30,Yes,No,Was a fun experiment I suppose.,1,1,Male,English,Firefox,Windows,1080,1920,3.1599166666666667,
1231,list1,wooden,table_wood_blue,material2_correct,tmb_twb_twg,tmb_twb_twg_2,yes,material,table_wood_green,3,,"[2593, 'yes']",,33,table_metal_blue,,[],30,Yes,No,Was a fun experiment I suppose.,1,1,Male,English,Firefox,Windows,1080,1920,3.1599166666666667,
1231,list1,black,jacket_leather_purple,color2_incorrect,jdp_jlp_jlbo,jdp_jlp_jlbo_2,no,color,jacket_leather_black_original,"['3', '4']",,"[2831, 'no']",,34,jacket_denim_purple,,[],30,Yes,No,Was a fun experiment I suppose.,1,1,Male,English,Firefox,Windows,1080,1920,3.1599166666666667,
1231,list1,blue,table_metal_green,color1_incorrect,tmb_tmg_twg,tmb_tmg_twg_1,no,color,table_wood_green,"['2', '3']",,"[3328, 'no']",,35,table_metal_blue,,[],30,Yes,No,Was a fun experiment I suppose.,1,1,Male,English,Firefox,Windows,1080,1920,3.1599166666666667,
1231,list1,green,boot_leather_black_original,color1_correct,blg_blbo_brbo,blg_blbo_brbo_2,yes,color,boot_rubber_black_original,1,,"[2383, 'yes']",,36,boot_leather_green,,[],30,Yes,No,Was a fun experiment I suppose.,1,1,Male,English,Firefox,Windows,1080,1920,3.1599166666666667,
1231,list1,denim,jacket_leather_purple,material1_correct,jdp_jlp_jlg,jdp_jlp_jlg_2,yes,material,jacket_leather_green,1,,"[3199, 'yes']",,37,jacket_denim_purple,,[],30,Yes,No,Was a fun experiment I suppose.,1,1,Male,English,Firefox,Windows,1080,1920,3.1599166666666667,
1231,list1,glass,bottle_glass_green,material2_incorrect,bpg_bgg_bgb,bpg_bgg_bgb_1,no,material,bottle_glass_blue,"['4', '5']",,"[3296, 'no']",,38,bottle_plastic_green,,[],30,Yes,No,Was a fun experiment I suppose.,1,1,Male,English,Firefox,Windows,1080,1920,3.1599166666666667,
1231,list1,metal,pitcher_glass_blue,material1_incorrect,pmb_pgb_pgco,pmb_pgb_pgco_1,no,material,pitcher_glass_clear_original,"['2', '3']",,"[4303, 'no']",,39,pitcher_metal_blue,,[],30,Yes,No,Was a fun experiment I suppose.,1,1,Male,English,Firefox,Windows,1080,1920,3.1599166666666667,
1231,list1,metal,chair_metal_green,material1_incorrect,cmp_cmg_cwg,cmp_cmg_cwg_1,no,material,chair_wood_green,"['3', '4']",,"[2944, 'no']",,40,chair_metal_purple,,[],30,Yes,No,Was a fun experiment I suppose.,1,1,Male,English,Firefox,Windows,1080,1920,3.1599166666666667,
1231,list1,pink,plate_plastic_blue_original,color2_correct,ppb_ppbo_ppp,ppb_ppbo_ppp_1,yes,color,plate_plastic_pink,2,,"[1808, 'yes']",,41,plate_paper_blue,,[],30,Yes,No,Was a fun experiment I suppose.,1,1,Male,English,Firefox,Windows,1080,1920,3.1599166666666667,
1157,list1,,,,,,,,,,Linda,Linda,0,1,,bot_check,[],49,Yes,No,,3,1,Female,English,Chrome,Windows,1080,1920,2.5125166666666665,
1157,list1,blue,box_wood_blue,color_correct,practice_1,,yes,color,box_wood_brown,2,,"[4593, 'no']",,practice_trial,box_cardboard_blue,,[],49,Yes,No,,3,1,Female,English,Chrome,Windows,1080,1920,2.5125166666666665,
1157,list1,plastic,ball_metal_red,material_incorrect,practice_2,,no,material,ball_plastic_red,4,,"[3845, 'yes']",,practice_trial,ball_metal_green,,[],49,Yes,No,,3,1,Female,English,Chrome,Windows,1080,1920,2.5125166666666665,
1157,list1,metal,bowl_glass_blue,material_correct,practice_3,,yes,material,bowl_metal_blue,2,,"[3612, 'yes']",,practice_trial,bowl_glass_green,,[],49,Yes,No,,3,1,Female,English,Chrome,Windows,1080,1920,2.5125166666666665,
1157,list1,blue,vase_glass_green,color_incorrect,practice_4,,no,color,vase_glass_blue,3,,"[4056, 'no']",,practice_trial,vase_wood_green,,[],49,Yes,No,,3,1,Female,English,Chrome,Windows,1080,1920,2.5125166666666665,
1157,list1,green,bag_plastic_blue,color_incorrect,practice_5,,no,color,bag_plastic_green,4,,"[3056, 'no']",,practice_trial,bag_paper_blue,,[],49,Yes,No,,3,1,Female,English,Chrome,Windows,1080,1920,2.5125166666666665,
1157,list1,wooden,door_steel_yellow,material_correct,practice_6,,yes,material,door_steel_red,1,,"[2950, 'yes']",,practice_trial,door_wood_yellow,,[],49,Yes,No,,3,1,Female,English,Chrome,Windows,1080,1920,2.5125166666666665,
1157,list1,plastic,bottle_plastic_green,material2_correct,bgg_bpg_bpco,bgg_bpg_bpco_1,yes,material,bottle_plastic_clear_original,3,,"[3198, 'yes']",,11,bottle_glass_green,,[],49,Yes,No,,3,1,Female,English,Chrome,Windows,1080,1920,2.5125166666666665,
1157,list1,green,spoon_wood_blue,color1_correct,swg_swb_spb,swg_swb_spb_1,yes,color,spoon_plastic_blue,1,,"[2918, 'yes']",,12,spoon_wood_green,,[],49,Yes,No,,3,1,Female,English,Chrome,Windows,1080,1920,2.5125166666666665,
1157,list1,blue,pitcher_plastic_blue,color1_correct,pmb_ppb_ppwo,pmb_ppb_ppwo_1,yes,color,pitcher_plastic_white_original,2,,"[2138, 'yes']",,13,pitcher_metal_blue,,[],49,Yes,No,,3,1,Female,English,Chrome,Windows,1080,1920,2.5125166666666665,
1157,list1,plastic,pitcher_plastic_blue,material2_incorrect,pmb_ppb_ppg,pmb_ppb_ppg_2,no,material,pitcher_plastic_green,"['4', '5']",,"[4389, 'no']",,14,pitcher_metal_blue,,[],49,Yes,No,,3,1,Female,English,Chrome,Windows,1080,1920,2.5125166666666665,
1157,list1,green,plate_paper_blue,color2_incorrect,ppbo_ppb_ppg,ppbo_ppb_ppg_1,no,color,plate_paper_green,"['3', '4']",,"[2741, 'no']",,15,plate_plastic_blue_original,,[],49,Yes,No,,3,1,Female,English,Chrome,Windows,1080,1920,2.5125166666666665,
1157,list1,plastic,plate_paper_blue,material1_correct,ppbo_ppb_ppwo,ppbo_ppb_ppwo_2,yes,material,plate_paper_white_original,1,,"[2935, 'no']",,16,plate_plastic_blue_original,,[],49,Yes,No,,3,1,Female,English,Chrome,Windows,1080,1920,2.5125166666666665,
1157,list1,metal,pitcher_glass_blue,material1_incorrect,pmb_pgb_pgco,pmb_pgb_pgco_2,no,material,pitcher_glass_clear_original,"['2', '3']",,"[3006, 'no']",,17,pitcher_metal_blue,,[],49,Yes,No,,3,1,Female,English,Chrome,Windows,1080,1920,2.5125166666666665,
1157,list1,green,cup_metal_green,color1_incorrect,cpg_cmg_cmb,cpg_cmg_cmb_1,no,color,cup_metal_blue,"['3', '4']",,"[2495, 'no']",,18,cup_plastic_green,,[],49,Yes,No,,3,1,Female,English,Chrome,Windows,1080,1920,2.5125166666666665,
1157,list1,metal,table_wood_blue,material1_incorrect,tmb_twb_twbo,tmb_twb_twbo_2,no,material,table_wood_brown_original,"['2', '3']",,"[3487, 'no']",,19,table_metal_blue,,[],49,Yes,No,,3,1,Female,English,Chrome,Windows,1080,1920,2.5125166666666665,
1157,list1,black,jacket_leather_purple,color2_incorrect,jdp_jlp_jlbo,jdp_jlp_jlbo_1,no,color,jacket_leather_black_original,"['3', '4']",,"[2732, 'no']",,20,jacket_denim_purple,,[],49,Yes,No,,3,1,Female,English,Chrome,Windows,1080,1920,2.5125166666666665,
1157,list1,silver,cup_metal_green,color2_correct,cpg_cmg_cmso,cpg_cmg_cmso_1,yes,color,cup_metal_silver_original,2,,"[2535, 'yes']",,21,cup_plastic_green,,[],49,Yes,No,,3,1,Female,English,Chrome,Windows,1080,1920,2.5125166666666665,
1157,list1,denim,jacket_leather_purple,material1_correct,jdp_jlp_jlg,jdp_jlp_jlg_2,yes,material,jacket_leather_green,1,,"[3071, 'yes']",,22,jacket_denim_purple,,[],49,Yes,No,,3,1,Female,English,Chrome,Windows,1080,1920,2.5125166666666665,
1157,list1,purple,chair_metal_purple,color2_incorrect,cmg_cmp_cwp,cmg_cmp_cwp_2,no,color,chair_wood_purple,"['4', '5']",,"[2119, 'no']",,23,chair_metal_green,,[],49,Yes,No,,3,1,Female,English,Chrome,Windows,1080,1920,2.5125166666666665,
1157,list1,pink,plate_plastic_blue_original,color2_correct,ppb_ppbo_ppp,ppb_ppbo_ppp_2,yes,color,plate_plastic_pink,2,,"[2223, 'yes']",,24,plate_paper_blue,,[],49,Yes,No,,3,1,Female,English,Chrome,Windows,1080,1920,2.5125166666666665,
1157,list1,blue,plate_plastic_blue_original,color1_incorrect,ppb_ppbo_ppg,ppb_ppbo_ppg_2,no,color,plate_plastic_green,"['3', '4']",,"[2215, 'no']",,25,plate_paper_blue,,[],49,Yes,No,,3,1,Female,English,Chrome,Windows,1080,1920,2.5125166666666665,
1157,list1,plastic,plate_paper_green,material2_correct,ppb_ppg_ppg,ppb_ppg_ppg_2,yes,material,plate_plastic_green,2,,"[3215, 'yes']",,26,plate_paper_blue,,[],49,Yes,No,,3,1,Female,English,Chrome,Windows,1080,1920,2.5125166666666665,
1157,list1,metal,chair_metal_green,material1_incorrect,cmp_cmg_cwg,cmp_cmg_cwg_2,no,material,chair_wood_green,"['3', '4']",,"[2871, 'no']",,27,chair_metal_purple,,[],49,Yes,No,,3,1,Female,English,Chrome,Windows,1080,1920,2.5125166666666665,
1157,list1,glass,bottle_plastic_green,material1_incorrect,bgg_bpg_bpb,bgg_bpg_bpb_1,no,material,bottle_plastic_blue,"['2', '3']",,"[3862, 'yes']",,28,bottle_glass_green,,[],49,Yes,No,,3,1,Female,English,Chrome,Windows,1080,1920,2.5125166666666665,
1157,list1,glass,bottle_glass_green,material2_incorrect,bpg_bgg_bgb,bpg_bgg_bgb_1,no,material,bottle_glass_blue,"['4', '5']",,"[2522, 'no']",,29,bottle_plastic_green,,[],49,Yes,No,,3,1,Female,English,Chrome,Windows,1080,1920,2.5125166666666665,
1157,list1,green,bottle_glass_green,color1_correct,bpg_bgg_bgco,bpg_bgg_bgco_2,yes,color,bottle_glass_clear_original,2,,"[2179, 'yes']",,30,bottle_plastic_green,,[],49,Yes,No,,3,1,Female,English,Chrome,Windows,1080,1920,2.5125166666666665,
1157,list1,blue,table_metal_blue,color2_correct,tmg_tmb_twb,tmg_tmb_twb_1,yes,color,table_wood_blue,3,,"[3767, 'no']",,31,table_metal_green,,[],49,Yes,No,,3,1,Female,English,Chrome,Windows,1080,1920,2.5125166666666665,
1157,list1,green,boot_leather_black_original,color1_correct,blg_blbo_brbo,blg_blbo_brbo_1,yes,color,boot_rubber_black_original,1,,"[2062, 'yes']",,32,boot_leather_green,,[],49,Yes,No,,3,1,Female,English,Chrome,Windows,1080,1920,2.5125166666666665,
1157,list1,green,boot_leather_brown,color1_incorrect,blg_blb_brb,blg_blb_brb_2,no,color,boot_rubber_brown,"['2', '3']",,"[2279, 'no']",,33,boot_leather_green,,[],49,Yes,No,,3,1,Female,English,Chrome,Windows,1080,1920,2.5125166666666665,
1157,list1,metal,spoon_wood_blue,material2_incorrect,swg_swb_smb,swg_swb_smb_1,no,material,spoon_metal_blue,"['3', '4']",,"[3472, 'no']",,34,spoon_wood_green,,[],49,Yes,No,,3,1,Female,English,Chrome,Windows,1080,1920,2.5125166666666665,
1157,list1,metal,chair_metal_green,material1_correct,cmp_cmg_cpg,cmp_cmg_cpg_1,yes,material,chair_plastic_green,2,,"[3310, 'yes']",,35,chair_metal_purple,,[],49,Yes,No,,3,1,Female,English,Chrome,Windows,1080,1920,2.5125166666666665,
1157,list1,wooden,table_wood_blue,material2_correct,tmb_twb_twg,tmb_twb_twg_1,yes,material,table_wood_green,3,,"[2422, 'yes']",,36,table_metal_blue,,[],49,Yes,No,,3,1,Female,English,Chrome,Windows,1080,1920,2.5125166666666665,
1157,list1,blue,table_metal_green,color1_incorrect,tmb_tmg_twg,tmb_tmg_twg_1,no,color,table_wood_green,"['2', '3']",,"[2159, 'no']",,37,table_metal_blue,,[],49,Yes,No,,3,1,Female,English,Chrome,Windows,1080,1920,2.5125166666666665,
1157,list1,metal,table_metal_green,material1_correct,tmso_tmg_twg,tmso_tmg_twg_2,yes,material,table_wood_green,2,,"[2295, 'yes']",,38,table_metal_silver_original,,[],49,Yes,No,,3,1,Female,English,Chrome,Windows,1080,1920,2.5125166666666665,
1157,list1,purple,chair_metal_purple,color2_correct,cmg_cmp_cpp,cmg_cmp_cpp_1,yes,color,chair_plastic_purple,3,,"[2054, 'yes']",,39,chair_metal_green,,[],49,Yes,No,,3,1,Female,English,Chrome,Windows,1080,1920,2.5125166666666665,
1157,list1,glass,pitcher_glass_blue,material2_correct,pmb_pgb_pgg,pmb_pgb_pgg_1,yes,material,pitcher_glass_green,3,,"[2935, 'yes']",,40,pitcher_metal_blue,,[],49,Yes,No,,3,1,Female,English,Chrome,Windows,1080,1920,2.5125166666666665,
1157,list1,blue,table_metal_blue,color2_incorrect,tmso_tmb_twb,tmso_tmb_twb_1,no,color,table_wood_blue,"['4', '5']",,"[2438, 'no']",,41,table_metal_silver_original,,[],49,Yes,No,,3,1,Female,English,Chrome,Windows,1080,1920,2.5125166666666665,
1484,list1,,,,,,,,,,Elizabeth,Elizabeth,0,1,,bot_check,[],40,Yes,No,"Since we read left to right, it would have been better to see yes on the left and no on the right. I believe we're wired more for that. It takes more effort the other way.",3,1,Female,English,Firefox,Windows,1080,1920,3.877833333333333,
1484,list1,blue,box_wood_blue,color_correct,practice_1,,yes,color,box_wood_brown,2,,"[4319, 'yes']",,practice_trial,box_cardboard_blue,,[],40,Yes,No,"Since we read left to right, it would have been better to see yes on the left and no on the right. I believe we're wired more for that. It takes more effort the other way.",3,1,Female,English,Firefox,Windows,1080,1920,3.877833333333333,
1484,list1,plastic,ball_metal_red,material_incorrect,practice_2,,no,material,ball_plastic_red,4,,"[4903, 'yes']",,practice_trial,ball_metal_green,,[],40,Yes,No,"Since we read left to right, it would have been better to see yes on the left and no on the right. I believe we're wired more for that. It takes more effort the other way.",3,1,Female,English,Firefox,Windows,1080,1920,3.877833333333333,
1484,list1,metal,bowl_glass_blue,material_correct,practice_3,,yes,material,bowl_metal_blue,2,,"[3903, 'yes']",,practice_trial,bowl_glass_green,,[],40,Yes,No,"Since we read left to right, it would have been better to see yes on the left and no on the right. I believe we're wired more for that. It takes more effort the other way.",3,1,Female,English,Firefox,Windows,1080,1920,3.877833333333333,
1484,list1,blue,vase_glass_green,color_incorrect,practice_4,,no,color,vase_glass_blue,3,,"[3265, 'no']",,practice_trial,vase_wood_green,,[],40,Yes,No,"Since we read left to right, it would have been better to see yes on the left and no on the right. I believe we're wired more for that. It takes more effort the other way.",3,1,Female,English,Firefox,Windows,1080,1920,3.877833333333333,
1484,list1,green,bag_plastic_blue,color_incorrect,practice_5,,no,color,bag_plastic_green,4,,"[4234, 'no']",,practice_trial,bag_paper_blue,,[],40,Yes,No,"Since we read left to right, it would have been better to see yes on the left and no on the right. I believe we're wired more for that. It takes more effort the other way.",3,1,Female,English,Firefox,Windows,1080,1920,3.877833333333333,
1484,list1,wooden,door_steel_yellow,material_correct,practice_6,,yes,material,door_steel_red,1,,"[3541, 'yes']",,practice_trial,door_wood_yellow,,[],40,Yes,No,"Since we read left to right, it would have been better to see yes on the left and no on the right. I believe we're wired more for that. It takes more effort the other way.",3,1,Female,English,Firefox,Windows,1080,1920,3.877833333333333,
1484,list1,green,boot_leather_black_original,color1_correct,blg_blbo_brbo,blg_blbo_brbo_2,yes,color,boot_rubber_black_original,1,,"[2812, 'yes']",,11,boot_leather_green,,[],40,Yes,No,"Since we read left to right, it would have been better to see yes on the left and no on the right. I believe we're wired more for that. It takes more effort the other way.",3,1,Female,English,Firefox,Windows,1080,1920,3.877833333333333,
1484,list1,blue,table_metal_blue,color2_incorrect,tmso_tmb_twb,tmso_tmb_twb_2,no,color,table_wood_blue,"['4', '5']",,"[2759, 'no']",,12,table_metal_silver_original,,[],40,Yes,No,"Since we read left to right, it would have been better to see yes on the left and no on the right. I believe we're wired more for that. It takes more effort the other way.",3,1,Female,English,Firefox,Windows,1080,1920,3.877833333333333,
1484,list1,black,jacket_leather_purple,color2_incorrect,jdp_jlp_jlbo,jdp_jlp_jlbo_2,no,color,jacket_leather_black_original,"['3', '4']",,"[3592, 'no']",,13,jacket_denim_purple,,[],40,Yes,No,"Since we read left to right, it would have been better to see yes on the left and no on the right. I believe we're wired more for that. It takes more effort the other way.",3,1,Female,English,Firefox,Windows,1080,1920,3.877833333333333,
1484,list1,glass,pitcher_glass_blue,material2_correct,pmb_pgb_pgg,pmb_pgb_pgg_1,yes,material,pitcher_glass_green,3,,"[3417, 'no']",,14,pitcher_metal_blue,,[],40,Yes,No,"Since we read left to right, it would have been better to see yes on the left and no on the right. I believe we're wired more for that. It takes more effort the other way.",3,1,Female,English,Firefox,Windows,1080,1920,3.877833333333333,
1484,list1,wooden,table_wood_blue,material2_correct,tmb_twb_twg,tmb_twb_twg_1,yes,material,table_wood_green,3,,"[4084, 'yes']",,15,table_metal_blue,,[],40,Yes,No,"Since we read left to right, it would have been better to see yes on the left and no on the right. I believe we're wired more for that. It takes more effort the other way.",3,1,Female,English,Firefox,Windows,1080,1920,3.877833333333333,
1484,list1,green,spoon_wood_blue,color1_correct,swg_swb_spb,swg_swb_spb_2,yes,color,spoon_plastic_blue,1,,"[5525, 'yes']",,16,spoon_wood_green,,[],40,Yes,No,"Since we read left to right, it would have been better to see yes on the left and no on the right. I believe we're wired more for that. It takes more effort the other way.",3,1,Female,English,Firefox,Windows,1080,1920,3.877833333333333,
1484,list1,glass,bottle_glass_green,material2_incorrect,bpg_bgg_bgb,bpg_bgg_bgb_1,no,material,bottle_glass_blue,"['4', '5']",,"[3380, 'yes']",,17,bottle_plastic_green,,[],40,Yes,No,"Since we read left to right, it would have been better to see yes on the left and no on the right. I believe we're wired more for that. It takes more effort the other way.",3,1,Female,English,Firefox,Windows,1080,1920,3.877833333333333,
1484,list1,metal,chair_metal_green,material1_incorrect,cmp_cmg_cwg,cmp_cmg_cwg_1,no,material,chair_wood_green,"['3', '4']",,"[3871, 'yes']",,18,chair_metal_purple,,[],40,Yes,No,"Since we read left to right, it would have been better to see yes on the left and no on the right. I believe we're wired more for that. It takes more effort the other way.",3,1,Female,English,Firefox,Windows,1080,1920,3.877833333333333,
1484,list1,blue,pitcher_plastic_blue,color1_correct,pmb_ppb_ppwo,pmb_ppb_ppwo_1,yes,color,pitcher_plastic_white_original,2,,"[5371, 'yes']",,19,pitcher_metal_blue,,[],40,Yes,No,"Since we read left to right, it would have been better to see yes on the left and no on the right. I believe we're wired more for that. It takes more effort the other way.",3,1,Female,English,Firefox,Windows,1080,1920,3.877833333333333,
1484,list1,plastic,pitcher_plastic_blue,material2_incorrect,pmb_ppb_ppg,pmb_ppb_ppg_2,no,material,pitcher_plastic_green,"['4', '5']",,"[3790, 'no']",,20,pitcher_metal_blue,,[],40,Yes,No,"Since we read left to right, it would have been better to see yes on the left and no on the right. I believe we're wired more for that. It takes more effort the other way.",3,1,Female,English,Firefox,Windows,1080,1920,3.877833333333333,
1484,list1,pink,plate_plastic_blue_original,color2_correct,ppb_ppbo_ppp,ppb_ppbo_ppp_2,yes,color,plate_plastic_pink,2,,"[4342, 'yes']",,21,plate_paper_blue,,[],40,Yes,No,"Since we read left to right, it would have been better to see yes on the left and no on the right. I believe we're wired more for that. It takes more effort the other way.",3,1,Female,English,Firefox,Windows,1080,1920,3.877833333333333,
1484,list1,purple,chair_metal_purple,color2_incorrect,cmg_cmp_cwp,cmg_cmp_cwp_2,no,color,chair_wood_purple,"['4', '5']",,"[4610, 'no']",,22,chair_metal_green,,[],40,Yes,No,"Since we read left to right, it would have been better to see yes on the left and no on the right. I believe we're wired more for that. It takes more effort the other way.",3,1,Female,English,Firefox,Windows,1080,1920,3.877833333333333,
1484,list1,plastic,plate_paper_blue,material1_correct,ppbo_ppb_ppwo,ppbo_ppb_ppwo_1,yes,material,plate_paper_white_original,1,,"[4811, 'yes']",,23,plate_plastic_blue_original,,[],40,Yes,No,"Since we read left to right, it would have been better to see yes on the left and no on the right. I believe we're wired more for that. It takes more effort the other way.",3,1,Female,English,Firefox,Windows,1080,1920,3.877833333333333,
1484,list1,metal,table_wood_blue,material1_incorrect,tmb_twb_twbo,tmb_twb_twbo_1,no,material,table_wood_brown_original,"['2', '3']",,"[3374, 'no']",,24,table_metal_blue,,[],40,Yes,No,"Since we read left to right, it would have been better to see yes on the left and no on the right. I believe we're wired more for that. It takes more effort the other way.",3,1,Female,English,Firefox,Windows,1080,1920,3.877833333333333,
1484,list1,green,plate_paper_blue,color2_incorrect,ppbo_ppb_ppg,ppbo_ppb_ppg_2,no,color,plate_paper_green,"['3', '4']",,"[4161, 'no']",,25,plate_plastic_blue_original,,[],40,Yes,No,"Since we read left to right, it would have been better to see yes on the left and no on the right. I believe we're wired more for that. It takes more effort the other way.",3,1,Female,English,Firefox,Windows,1080,1920,3.877833333333333,
1484,list1,blue,table_metal_green,color1_incorrect,tmb_tmg_twg,tmb_tmg_twg_2,no,color,table_wood_green,"['2', '3']",,"[3643, 'yes']",,26,table_metal_blue,,[],40,Yes,No,"Since we read left to right, it would have been better to see yes on the left and no on the right. I believe we're wired more for that. It takes more effort the other way.",3,1,Female,English,Firefox,Windows,1080,1920,3.877833333333333,
1484,list1,green,bottle_glass_green,color1_correct,bpg_bgg_bgco,bpg_bgg_bgco_1,yes,color,bottle_glass_clear_original,2,,"[3562, 'yes']",,27,bottle_plastic_green,,[],40,Yes,No,"Since we read left to right, it would have been better to see yes on the left and no on the right. I believe we're wired more for that. It takes more effort the other way.",3,1,Female,English,Firefox,Windows,1080,1920,3.877833333333333,
1484,list1,metal,spoon_wood_blue,material2_incorrect,swg_swb_smb,swg_swb_smb_2,no,material,spoon_metal_blue,"['3', '4']",,"[3977, 'no']",,28,spoon_wood_green,,[],40,Yes,No,"Since we read left to right, it would have been better to see yes on the left and no on the right. I believe we're wired more for that. It takes more effort the other way.",3,1,Female,English,Firefox,Windows,1080,1920,3.877833333333333,
1484,list1,glass,bottle_plastic_green,material1_incorrect,bgg_bpg_bpb,bgg_bpg_bpb_1,no,material,bottle_plastic_blue,"['2', '3']",,"[3942, 'no']",,29,bottle_glass_green,,[],40,Yes,No,"Since we read left to right, it would have been better to see yes on the left and no on the right. I believe we're wired more for that. It takes more effort the other way.",3,1,Female,English,Firefox,Windows,1080,1920,3.877833333333333,
1484,list1,blue,plate_plastic_blue_original,color1_incorrect,ppb_ppbo_ppg,ppb_ppbo_ppg_2,no,color,plate_plastic_green,"['3', '4']",,"[8943, 'no']",,30,plate_paper_blue,,[],40,Yes,No,"Since we read left to right, it would have been better to see yes on the left and no on the right. I believe we're wired more for that. It takes more effort the other way.",3,1,Female,English,Firefox,Windows,1080,1920,3.877833333333333,
1484,list1,silver,cup_metal_green,color2_correct,cpg_cmg_cmso,cpg_cmg_cmso_2,yes,color,cup_metal_silver_original,2,,"[2698, 'yes']",,31,cup_plastic_green,,[],40,Yes,No,"Since we read left to right, it would have been better to see yes on the left and no on the right. I believe we're wired more for that. It takes more effort the other way.",3,1,Female,English,Firefox,Windows,1080,1920,3.877833333333333,
1484,list1,denim,jacket_leather_purple,material1_correct,jdp_jlp_jlg,jdp_jlp_jlg_1,yes,material,jacket_leather_green,1,,"[4310, 'yes']",,32,jacket_denim_purple,,[],40,Yes,No,"Since we read left to right, it would have been better to see yes on the left and no on the right. I believe we're wired more for that. It takes more effort the other way.",3,1,Female,English,Firefox,Windows,1080,1920,3.877833333333333,
1484,list1,green,cup_metal_green,color1_incorrect,cpg_cmg_cmb,cpg_cmg_cmb_1,no,color,cup_metal_blue,"['3', '4']",,"[3715, 'no']",,33,cup_plastic_green,,[],40,Yes,No,"Since we read left to right, it would have been better to see yes on the left and no on the right. I believe we're wired more for that. It takes more effort the other way.",3,1,Female,English,Firefox,Windows,1080,1920,3.877833333333333,
1484,list1,plastic,plate_paper_green,material2_correct,ppb_ppg_ppg,ppb_ppg_ppg_2,yes,material,plate_plastic_green,2,,"[3556, 'yes']",,34,plate_paper_blue,,[],40,Yes,No,"Since we read left to right, it would have been better to see yes on the left and no on the right. I believe we're wired more for that. It takes more effort the other way.",3,1,Female,English,Firefox,Windows,1080,1920,3.877833333333333,
1484,list1,metal,table_metal_green,material1_correct,tmso_tmg_twg,tmso_tmg_twg_1,yes,material,table_wood_green,2,,"[2579, 'yes']",,35,table_metal_silver_original,,[],40,Yes,No,"Since we read left to right, it would have been better to see yes on the left and no on the right. I believe we're wired more for that. It takes more effort the other way.",3,1,Female,English,Firefox,Windows,1080,1920,3.877833333333333,
1484,list1,plastic,bottle_plastic_green,material2_correct,bgg_bpg_bpco,bgg_bpg_bpco_1,yes,material,bottle_plastic_clear_original,3,,"[3392, 'yes']",,36,bottle_glass_green,,[],40,Yes,No,"Since we read left to right, it would have been better to see yes on the left and no on the right. I believe we're wired more for that. It takes more effort the other way.",3,1,Female,English,Firefox,Windows,1080,1920,3.877833333333333,
1484,list1,metal,chair_metal_green,material1_correct,cmp_cmg_cpg,cmp_cmg_cpg_1,yes,material,chair_plastic_green,2,,"[4663, 'yes']",,37,chair_metal_purple,,[],40,Yes,No,"Since we read left to right, it would have been better to see yes on the left and no on the right. I believe we're wired more for that. It takes more effort the other way.",3,1,Female,English,Firefox,Windows,1080,1920,3.877833333333333,
1484,list1,purple,chair_metal_purple,color2_correct,cmg_cmp_cpp,cmg_cmp_cpp_2,yes,color,chair_plastic_purple,3,,"[4486, 'yes']",,38,chair_metal_green,,[],40,Yes,No,"Since we read left to right, it would have been better to see yes on the left and no on the right. I believe we're wired more for that. It takes more effort the other way.",3,1,Female,English,Firefox,Windows,1080,1920,3.877833333333333,
1484,list1,green,boot_leather_brown,color1_incorrect,blg_blb_brb,blg_blb_brb_2,no,color,boot_rubber_brown,"['2', '3']",,"[3720, 'no']",,39,boot_leather_green,,[],40,Yes,No,"Since we read left to right, it would have been better to see yes on the left and no on the right. I believe we're wired more for that. It takes more effort the other way.",3,1,Female,English,Firefox,Windows,1080,1920,3.877833333333333,
1484,list1,blue,table_metal_blue,color2_correct,tmg_tmb_twb,tmg_tmb_twb_1,yes,color,table_wood_blue,3,,"[5724, 'yes']",,40,table_metal_green,,[],40,Yes,No,"Since we read left to right, it would have been better to see yes on the left and no on the right. I believe we're wired more for that. It takes more effort the other way.",3,1,Female,English,Firefox,Windows,1080,1920,3.877833333333333,
1484,list1,metal,pitcher_glass_blue,material1_incorrect,pmb_pgb_pgco,pmb_pgb_pgco_2,no,material,pitcher_glass_clear_original,"['2', '3']",,"[5384, 'no']",,41,pitcher_metal_blue,,[],40,Yes,No,"Since we read left to right, it would have been better to see yes on the left and no on the right. I believe we're wired more for that. It takes more effort the other way.",3,1,Female,English,Firefox,Windows,1080,1920,3.877833333333333,
1513,list1,,,,,,,,,,Jessica,Jessica,0,1,,bot_check,[],28,Yes,No,,2,1,Male,English,Chrome,Windows,864,1536,2.3985333333333334,
1513,list1,blue,box_wood_blue,color_correct,practice_1,,yes,color,box_wood_brown,2,,"[3958, 'yes']",,practice_trial,box_cardboard_blue,,[],28,Yes,No,,2,1,Male,English,Chrome,Windows,864,1536,2.3985333333333334,
1513,list1,plastic,ball_metal_red,material_incorrect,practice_2,,no,material,ball_plastic_red,4,,"[6611, 'no']",,practice_trial,ball_metal_green,,[],28,Yes,No,,2,1,Male,English,Chrome,Windows,864,1536,2.3985333333333334,
1513,list1,metal,bowl_glass_blue,material_correct,practice_3,,yes,material,bowl_metal_blue,2,,"[3980, 'yes']",,practice_trial,bowl_glass_green,,[],28,Yes,No,,2,1,Male,English,Chrome,Windows,864,1536,2.3985333333333334,
1513,list1,blue,vase_glass_green,color_incorrect,practice_4,,no,color,vase_glass_blue,3,,"[3335, 'no']",,practice_trial,vase_wood_green,,[],28,Yes,No,,2,1,Male,English,Chrome,Windows,864,1536,2.3985333333333334,
1513,list1,green,bag_plastic_blue,color_incorrect,practice_5,,no,color,bag_plastic_green,4,,"[2444, 'no']",,practice_trial,bag_paper_blue,,[],28,Yes,No,,2,1,Male,English,Chrome,Windows,864,1536,2.3985333333333334,
1513,list1,wooden,door_steel_yellow,material_correct,practice_6,,yes,material,door_steel_red,1,,"[4873, 'yes']",,practice_trial,door_wood_yellow,,[],28,Yes,No,,2,1,Male,English,Chrome,Windows,864,1536,2.3985333333333334,
1513,list1,purple,chair_metal_purple,color2_correct,cmg_cmp_cpp,cmg_cmp_cpp_1,yes,color,chair_plastic_purple,3,,"[2314, 'yes']",,11,chair_metal_green,,[],28,Yes,No,,2,1,Male,English,Chrome,Windows,864,1536,2.3985333333333334,
1513,list1,denim,jacket_leather_purple,material1_correct,jdp_jlp_jlg,jdp_jlp_jlg_1,yes,material,jacket_leather_green,1,,"[3325, 'yes']",,12,jacket_denim_purple,,[],28,Yes,No,,2,1,Male,English,Chrome,Windows,864,1536,2.3985333333333334,
1513,list1,plastic,pitcher_plastic_blue,material2_incorrect,pmb_ppb_ppg,pmb_ppb_ppg_2,no,material,pitcher_plastic_green,"['4', '5']",,"[2186, 'no']",,13,pitcher_metal_blue,,[],28,Yes,No,,2,1,Male,English,Chrome,Windows,864,1536,2.3985333333333334,
1513,list1,glass,bottle_glass_green,material2_incorrect,bpg_bgg_bgb,bpg_bgg_bgb_2,no,material,bottle_glass_blue,"['4', '5']",,"[3175, 'no']",,14,bottle_plastic_green,,[],28,Yes,No,,2,1,Male,English,Chrome,Windows,864,1536,2.3985333333333334,
1513,list1,blue,table_metal_green,color1_incorrect,tmb_tmg_twg,tmb_tmg_twg_2,no,color,table_wood_green,"['2', '3']",,"[2007, 'no']",,15,table_metal_blue,,[],28,Yes,No,,2,1,Male,English,Chrome,Windows,864,1536,2.3985333333333334,
1513,list1,metal,chair_metal_green,material1_correct,cmp_cmg_cpg,cmp_cmg_cpg_1,yes,material,chair_plastic_green,2,,"[2938, 'yes']",,16,chair_metal_purple,,[],28,Yes,No,,2,1,Male,English,Chrome,Windows,864,1536,2.3985333333333334,
1513,list1,black,jacket_leather_purple,color2_incorrect,jdp_jlp_jlbo,jdp_jlp_jlbo_2,no,color,jacket_leather_black_original,"['3', '4']",,"[2057, 'no']",,17,jacket_denim_purple,,[],28,Yes,No,,2,1,Male,English,Chrome,Windows,864,1536,2.3985333333333334,
1513,list1,wooden,table_wood_blue,material2_correct,tmb_twb_twg,tmb_twb_twg_2,yes,material,table_wood_green,3,,"[3717, 'yes']",,18,table_metal_blue,,[],28,Yes,No,,2,1,Male,English,Chrome,Windows,864,1536,2.3985333333333334,
1513,list1,green,boot_leather_black_original,color1_correct,blg_blbo_brbo,blg_blbo_brbo_2,yes,color,boot_rubber_black_original,1,,"[2028, 'yes']",,19,boot_leather_green,,[],28,Yes,No,,2,1,Male,English,Chrome,Windows,864,1536,2.3985333333333334,
1513,list1,silver,cup_metal_green,color2_correct,cpg_cmg_cmso,cpg_cmg_cmso_1,yes,color,cup_metal_silver_original,2,,"[2419, 'yes']",,20,cup_plastic_green,,[],28,Yes,No,,2,1,Male,English,Chrome,Windows,864,1536,2.3985333333333334,
1513,list1,green,plate_paper_blue,color2_incorrect,ppbo_ppb_ppg,ppbo_ppb_ppg_2,no,color,plate_paper_green,"['3', '4']",,"[1943, 'no']",,21,plate_plastic_blue_original,,[],28,Yes,No,,2,1,Male,English,Chrome,Windows,864,1536,2.3985333333333334,
1513,list1,green,bottle_glass_green,color1_correct,bpg_bgg_bgco,bpg_bgg_bgco_1,yes,color,bottle_glass_clear_original,2,,"[1846, 'yes']",,22,bottle_plastic_green,,[],28,Yes,No,,2,1,Male,English,Chrome,Windows,864,1536,2.3985333333333334,
1513,list1,metal,table_wood_blue,material1_incorrect,tmb_twb_twbo,tmb_twb_twbo_2,no,material,table_wood_brown_original,"['2', '3']",,"[3282, 'no']",,23,table_metal_blue,,[],28,Yes,No,,2,1,Male,English,Chrome,Windows,864,1536,2.3985333333333334,
1513,list1,blue,plate_plastic_blue_original,color1_incorrect,ppb_ppbo_ppg,ppb_ppbo_ppg_1,no,color,plate_plastic_green,"['3', '4']",,"[1843, 'no']",,24,plate_paper_blue,,[],28,Yes,No,,2,1,Male,English,Chrome,Windows,864,1536,2.3985333333333334,
1513,list1,green,spoon_wood_blue,color1_correct,swg_swb_spb,swg_swb_spb_1,yes,color,spoon_plastic_blue,1,,"[2206, 'yes']",,25,spoon_wood_green,,[],28,Yes,No,,2,1,Male,English,Chrome,Windows,864,1536,2.3985333333333334,
1513,list1,plastic,plate_paper_blue,material1_correct,ppbo_ppb_ppwo,ppbo_ppb_ppwo_2,yes,material,plate_paper_white_original,1,,"[4416, 'yes']",,26,plate_plastic_blue_original,,[],28,Yes,No,,2,1,Male,English,Chrome,Windows,864,1536,2.3985333333333334,
1513,list1,plastic,plate_paper_green,material2_correct,ppb_ppg_ppg,ppb_ppg_ppg_1,yes,material,plate_plastic_green,2,,"[2798, 'yes']",,27,plate_paper_blue,,[],28,Yes,No,,2,1,Male,English,Chrome,Windows,864,1536,2.3985333333333334,
1513,list1,metal,spoon_wood_blue,material2_incorrect,swg_swb_smb,swg_swb_smb_2,no,material,spoon_metal_blue,"['3', '4']",,"[2348, 'no']",,28,spoon_wood_green,,[],28,Yes,No,,2,1,Male,English,Chrome,Windows,864,1536,2.3985333333333334,
1513,list1,metal,table_metal_green,material1_correct,tmso_tmg_twg,tmso_tmg_twg_1,yes,material,table_wood_green,2,,"[2926, 'yes']",,29,table_metal_silver_original,,[],28,Yes,No,,2,1,Male,English,Chrome,Windows,864,1536,2.3985333333333334,
1513,list1,metal,pitcher_glass_blue,material1_incorrect,pmb_pgb_pgco,pmb_pgb_pgco_1,no,material,pitcher_glass_clear_original,"['2', '3']",,"[3606, 'no']",,30,pitcher_metal_blue,,[],28,Yes,No,,2,1,Male,English,Chrome,Windows,864,1536,2.3985333333333334,
1513,list1,blue,pitcher_plastic_blue,color1_correct,pmb_ppb_ppwo,pmb_ppb_ppwo_2,yes,color,pitcher_plastic_white_original,2,,"[1941, 'yes']",,31,pitcher_metal_blue,,[],28,Yes,No,,2,1,Male,English,Chrome,Windows,864,1536,2.3985333333333334,
1513,list1,blue,table_metal_blue,color2_incorrect,tmso_tmb_twb,tmso_tmb_twb_1,no,color,table_wood_blue,"['4', '5']",,"[1926, 'no']",,32,table_metal_silver_original,,[],28,Yes,No,,2,1,Male,English,Chrome,Windows,864,1536,2.3985333333333334,
1513,list1,green,cup_metal_green,color1_incorrect,cpg_cmg_cmb,cpg_cmg_cmb_2,no,color,cup_metal_blue,"['3', '4']",,"[2126, 'no']",,33,cup_plastic_green,,[],28,Yes,No,,2,1,Male,English,Chrome,Windows,864,1536,2.3985333333333334,
1513,list1,glass,pitcher_glass_blue,material2_correct,pmb_pgb_pgg,pmb_pgb_pgg_2,yes,material,pitcher_glass_green,3,,"[3120, 'yes']",,34,pitcher_metal_blue,,[],28,Yes,No,,2,1,Male,English,Chrome,Windows,864,1536,2.3985333333333334,
1513,list1,green,boot_leather_brown,color1_incorrect,blg_blb_brb,blg_blb_brb_2,no,color,boot_rubber_brown,"['2', '3']",,"[2039, 'no']",,35,boot_leather_green,,[],28,Yes,No,,2,1,Male,English,Chrome,Windows,864,1536,2.3985333333333334,
1513,list1,blue,table_metal_blue,color2_correct,tmg_tmb_twb,tmg_tmb_twb_1,yes,color,table_wood_blue,3,,"[2502, 'yes']",,36,table_metal_green,,[],28,Yes,No,,2,1,Male,English,Chrome,Windows,864,1536,2.3985333333333334,
1513,list1,plastic,bottle_plastic_green,material2_correct,bgg_bpg_bpco,bgg_bpg_bpco_1,yes,material,bottle_plastic_clear_original,3,,"[3674, 'yes']",,37,bottle_glass_green,,[],28,Yes,No,,2,1,Male,English,Chrome,Windows,864,1536,2.3985333333333334,
1513,list1,pink,plate_plastic_blue_original,color2_correct,ppb_ppbo_ppp,ppb_ppbo_ppp_2,yes,color,plate_plastic_pink,2,,"[2103, 'yes']",,38,plate_paper_blue,,[],28,Yes,No,,2,1,Male,English,Chrome,Windows,864,1536,2.3985333333333334,
1513,list1,metal,chair_metal_green,material1_incorrect,cmp_cmg_cwg,cmp_cmg_cwg_2,no,material,chair_wood_green,"['3', '4']",,"[2640, 'no']",,39,chair_metal_purple,,[],28,Yes,No,,2,1,Male,English,Chrome,Windows,864,1536,2.3985333333333334,
1513,list1,purple,chair_metal_purple,color2_incorrect,cmg_cmp_cwp,cmg_cmp_cwp_1,no,color,chair_wood_purple,"['4', '5']",,"[2419, 'no']",,40,chair_metal_green,,[],28,Yes,No,,2,1,Male,English,Chrome,Windows,864,1536,2.3985333333333334,
1513,list1,glass,bottle_plastic_green,material1_incorrect,bgg_bpg_bpb,bgg_bpg_bpb_1,no,material,bottle_plastic_blue,"['2', '3']",,"[3134, 'no']",,41,bottle_glass_green,,[],28,Yes,No,,2,1,Male,English,Chrome,Windows,864,1536,2.3985333333333334,
1454,list1,,,,,,,,,,Mary,Mary,0,1,,bot_check,[],38,Yes,No,,3,2,Male,English,Chrome,Windows,720,1280,3.1310166666666666,
1454,list1,blue,box_wood_blue,color_correct,practice_1,,yes,color,box_wood_brown,2,,"[6869, 'yes']",,practice_trial,box_cardboard_blue,,[],38,Yes,No,,3,2,Male,English,Chrome,Windows,720,1280,3.1310166666666666,
1454,list1,plastic,ball_metal_red,material_incorrect,practice_2,,no,material,ball_plastic_red,4,,"[6308, 'yes']",,practice_trial,ball_metal_green,,[],38,Yes,No,,3,2,Male,English,Chrome,Windows,720,1280,3.1310166666666666,
1454,list1,metal,bowl_glass_blue,material_correct,practice_3,,yes,material,bowl_metal_blue,2,,"[3484, 'yes']",,practice_trial,bowl_glass_green,,[],38,Yes,No,,3,2,Male,English,Chrome,Windows,720,1280,3.1310166666666666,
1454,list1,blue,vase_glass_green,color_incorrect,practice_4,,no,color,vase_glass_blue,3,,"[2239, 'no']",,practice_trial,vase_wood_green,,[],38,Yes,No,,3,2,Male,English,Chrome,Windows,720,1280,3.1310166666666666,
1454,list1,green,bag_plastic_blue,color_incorrect,practice_5,,no,color,bag_plastic_green,4,,"[3178, 'no']",,practice_trial,bag_paper_blue,,[],38,Yes,No,,3,2,Male,English,Chrome,Windows,720,1280,3.1310166666666666,
1454,list1,wooden,door_steel_yellow,material_correct,practice_6,,yes,material,door_steel_red,1,,"[3298, 'no']",,practice_trial,door_wood_yellow,,[],38,Yes,No,,3,2,Male,English,Chrome,Windows,720,1280,3.1310166666666666,
1454,list1,blue,table_metal_green,color1_incorrect,tmb_tmg_twg,tmb_tmg_twg_1,no,color,table_wood_green,"['2', '3']",,"[2516, 'no']",,11,table_metal_blue,,[],38,Yes,No,,3,2,Male,English,Chrome,Windows,720,1280,3.1310166666666666,
1454,list1,metal,chair_metal_green,material1_correct,cmp_cmg_cpg,cmp_cmg_cpg_1,yes,material,chair_plastic_green,2,,"[5067, 'yes']",,12,chair_metal_purple,,[],38,Yes,No,,3,2,Male,English,Chrome,Windows,720,1280,3.1310166666666666,
1454,list1,wooden,table_wood_blue,material2_correct,tmb_twb_twg,tmb_twb_twg_2,yes,material,table_wood_green,3,,"[7101, 'no']",,13,table_metal_blue,,[],38,Yes,No,,3,2,Male,English,Chrome,Windows,720,1280,3.1310166666666666,
1454,list1,blue,table_metal_blue,color2_correct,tmg_tmb_twb,tmg_tmb_twb_1,yes,color,table_wood_blue,3,,"[2177, 'yes']",,14,table_metal_green,,[],38,Yes,No,,3,2,Male,English,Chrome,Windows,720,1280,3.1310166666666666,
1454,list1,pink,plate_plastic_blue_original,color2_correct,ppb_ppbo_ppp,ppb_ppbo_ppp_2,yes,color,plate_plastic_pink,2,,"[2351, 'yes']",,15,plate_paper_blue,,[],38,Yes,No,,3,2,Male,English,Chrome,Windows,720,1280,3.1310166666666666,
1454,list1,black,jacket_leather_purple,color2_incorrect,jdp_jlp_jlbo,jdp_jlp_jlbo_1,no,color,jacket_leather_black_original,"['3', '4']",,"[2711, 'no']",,16,jacket_denim_purple,,[],38,Yes,No,,3,2,Male,English,Chrome,Windows,720,1280,3.1310166666666666,
1454,list1,metal,table_wood_blue,material1_incorrect,tmb_twb_twbo,tmb_twb_twbo_2,no,material,table_wood_brown_original,"['2', '3']",,"[3656, 'no']",,17,table_metal_blue,,[],38,Yes,No,,3,2,Male,English,Chrome,Windows,720,1280,3.1310166666666666,
1454,list1,metal,spoon_wood_blue,material2_incorrect,swg_swb_smb,swg_swb_smb_1,no,material,spoon_metal_blue,"['3', '4']",,"[3950, 'no']",,18,spoon_wood_green,,[],38,Yes,No,,3,2,Male,English,Chrome,Windows,720,1280,3.1310166666666666,
1454,list1,purple,chair_metal_purple,color2_incorrect,cmg_cmp_cwp,cmg_cmp_cwp_2,no,color,chair_wood_purple,"['4', '5']",,"[2256, 'no']",,19,chair_metal_green,,[],38,Yes,No,,3,2,Male,English,Chrome,Windows,720,1280,3.1310166666666666,
1454,list1,green,boot_leather_brown,color1_incorrect,blg_blb_brb,blg_blb_brb_2,no,color,boot_rubber_brown,"['2', '3']",,"[1727, 'no']",,20,boot_leather_green,,[],38,Yes,No,,3,2,Male,English,Chrome,Windows,720,1280,3.1310166666666666,
1454,list1,blue,plate_plastic_blue_original,color1_incorrect,ppb_ppbo_ppg,ppb_ppbo_ppg_2,no,color,plate_plastic_green,"['3', '4']",,"[2351, 'no']",,21,plate_paper_blue,,[],38,Yes,No,,3,2,Male,English,Chrome,Windows,720,1280,3.1310166666666666,
1454,list1,plastic,pitcher_plastic_blue,material2_incorrect,pmb_ppb_ppg,pmb_ppb_ppg_2,no,material,pitcher_plastic_green,"['4', '5']",,"[8195, 'yes']",,22,pitcher_metal_blue,,[],38,Yes,No,,3,2,Male,English,Chrome,Windows,720,1280,3.1310166666666666,
1454,list1,metal,pitcher_glass_blue,material1_incorrect,pmb_pgb_pgco,pmb_pgb_pgco_2,no,material,pitcher_glass_clear_original,"['2', '3']",,"[4711, 'no']",,23,pitcher_metal_blue,,[],38,Yes,No,,3,2,Male,English,Chrome,Windows,720,1280,3.1310166666666666,
1454,list1,blue,pitcher_plastic_blue,color1_correct,pmb_ppb_ppwo,pmb_ppb_ppwo_2,yes,color,pitcher_plastic_white_original,2,,"[2769, 'yes']",,24,pitcher_metal_blue,,[],38,Yes,No,,3,2,Male,English,Chrome,Windows,720,1280,3.1310166666666666,
1454,list1,glass,bottle_glass_green,material2_incorrect,bpg_bgg_bgb,bpg_bgg_bgb_2,no,material,bottle_glass_blue,"['4', '5']",,"[1566, 'no']",,25,bottle_plastic_green,,[],38,Yes,No,,3,2,Male,English,Chrome,Windows,720,1280,3.1310166666666666,
1454,list1,denim,jacket_leather_purple,material1_correct,jdp_jlp_jlg,jdp_jlp_jlg_1,yes,material,jacket_leather_green,1,,"[4357, 'yes']",,26,jacket_denim_purple,,[],38,Yes,No,,3,2,Male,English,Chrome,Windows,720,1280,3.1310166666666666,
1454,list1,green,spoon_wood_blue,color1_correct,swg_swb_spb,swg_swb_spb_2,yes,color,spoon_plastic_blue,1,,"[2709, 'yes']",,27,spoon_wood_green,,[],38,Yes,No,,3,2,Male,English,Chrome,Windows,720,1280,3.1310166666666666,
1454,list1,glass,bottle_plastic_green,material1_incorrect,bgg_bpg_bpb,bgg_bpg_bpb_1,no,material,bottle_plastic_blue,"['2', '3']",,"[5407, 'no']",,28,bottle_glass_green,,[],38,Yes,No,,3,2,Male,English,Chrome,Windows,720,1280,3.1310166666666666,
1454,list1,glass,pitcher_glass_blue,material2_correct,pmb_pgb_pgg,pmb_pgb_pgg_1,yes,material,pitcher_glass_green,3,,"[7301, 'yes']",,29,pitcher_metal_blue,,[],38,Yes,No,,3,2,Male,English,Chrome,Windows,720,1280,3.1310166666666666,
1454,list1,blue,table_metal_blue,color2_incorrect,tmso_tmb_twb,tmso_tmb_twb_1,no,color,table_wood_blue,"['4', '5']",,"[2214, 'no']",,30,table_metal_silver_original,,[],38,Yes,No,,3,2,Male,English,Chrome,Windows,720,1280,3.1310166666666666,
1454,list1,metal,chair_metal_green,material1_incorrect,cmp_cmg_cwg,cmp_cmg_cwg_2,no,material,chair_wood_green,"['3', '4']",,"[3315, 'no']",,31,chair_metal_purple,,[],38,Yes,No,,3,2,Male,English,Chrome,Windows,720,1280,3.1310166666666666,
1454,list1,plastic,plate_paper_blue,material1_correct,ppbo_ppb_ppwo,ppbo_ppb_ppwo_1,yes,material,plate_paper_white_original,1,,"[3618, 'no']",,32,plate_plastic_blue_original,,[],38,Yes,No,,3,2,Male,English,Chrome,Windows,720,1280,3.1310166666666666,
1454,list1,green,plate_paper_blue,color2_incorrect,ppbo_ppb_ppg,ppbo_ppb_ppg_2,no,color,plate_paper_green,"['3', '4']",,"[2375, 'no']",,33,plate_plastic_blue_original,,[],38,Yes,No,,3,2,Male,English,Chrome,Windows,720,1280,3.1310166666666666,
1454,list1,silver,cup_metal_green,color2_correct,cpg_cmg_cmso,cpg_cmg_cmso_1,yes,color,cup_metal_silver_original,2,,"[2937, 'yes']",,34,cup_plastic_green,,[],38,Yes,No,,3,2,Male,English,Chrome,Windows,720,1280,3.1310166666666666,
1454,list1,green,bottle_glass_green,color1_correct,bpg_bgg_bgco,bpg_bgg_bgco_2,yes,color,bottle_glass_clear_original,2,,"[1988, 'yes']",,35,bottle_plastic_green,,[],38,Yes,No,,3,2,Male,English,Chrome,Windows,720,1280,3.1310166666666666,
1454,list1,metal,table_metal_green,material1_correct,tmso_tmg_twg,tmso_tmg_twg_2,yes,material,table_wood_green,2,,"[3353, 'yes']",,36,table_metal_silver_original,,[],38,Yes,No,,3,2,Male,English,Chrome,Windows,720,1280,3.1310166666666666,
1454,list1,purple,chair_metal_purple,color2_correct,cmg_cmp_cpp,cmg_cmp_cpp_1,yes,color,chair_plastic_purple,3,,"[2187, 'yes']",,37,chair_metal_green,,[],38,Yes,No,,3,2,Male,English,Chrome,Windows,720,1280,3.1310166666666666,
1454,list1,plastic,bottle_plastic_green,material2_correct,bgg_bpg_bpco,bgg_bpg_bpco_1,yes,material,bottle_plastic_clear_original,3,,"[6324, 'yes']",,38,bottle_glass_green,,[],38,Yes,No,,3,2,Male,English,Chrome,Windows,720,1280,3.1310166666666666,
1454,list1,green,boot_leather_black_original,color1_correct,blg_blbo_brbo,blg_blbo_brbo_1,yes,color,boot_rubber_black_original,1,,"[1674, 'yes']",,39,boot_leather_green,,[],38,Yes,No,,3,2,Male,English,Chrome,Windows,720,1280,3.1310166666666666,
1454,list1,plastic,plate_paper_green,material2_correct,ppb_ppg_ppg,ppb_ppg_ppg_1,yes,material,plate_plastic_green,2,,"[4433, 'yes']",,40,plate_paper_blue,,[],38,Yes,No,,3,2,Male,English,Chrome,Windows,720,1280,3.1310166666666666,
1454,list1,green,cup_metal_green,color1_incorrect,cpg_cmg_cmb,cpg_cmg_cmb_1,no,color,cup_metal_blue,"['3', '4']",,"[2251, 'no']",,41,cup_plastic_green,,[],38,Yes,No,,3,2,Male,English,Chrome,Windows,720,1280,3.1310166666666666,
1292,list1,,,,,,,,,,Linda,Linda,0,1,,bot_check,[],47,Yes,No,"There were a couple where I was trying to work quickly and realized I hit the wrong button after. Also, hitting space in between makes it hard to get into a good rhythm. I wonder how subjects would perform without it.",3,2,Female,English,Chrome,Windows,768,1366,3.479833333333333,
1292,list1,blue,box_wood_blue,color_correct,practice_1,,yes,color,box_wood_brown,2,,"[3580, 'yes']",,practice_trial,box_cardboard_blue,,[],47,Yes,No,"There were a couple where I was trying to work quickly and realized I hit the wrong button after. Also, hitting space in between makes it hard to get into a good rhythm. I wonder how subjects would perform without it.",3,2,Female,English,Chrome,Windows,768,1366,3.479833333333333,
1292,list1,plastic,ball_metal_red,material_incorrect,practice_2,,no,material,ball_plastic_red,4,,"[3120, 'yes']",,practice_trial,ball_metal_green,,[],47,Yes,No,"There were a couple where I was trying to work quickly and realized I hit the wrong button after. Also, hitting space in between makes it hard to get into a good rhythm. I wonder how subjects would perform without it.",3,2,Female,English,Chrome,Windows,768,1366,3.479833333333333,
1292,list1,metal,bowl_glass_blue,material_correct,practice_3,,yes,material,bowl_metal_blue,2,,"[4559, 'yes']",,practice_trial,bowl_glass_green,,[],47,Yes,No,"There were a couple where I was trying to work quickly and realized I hit the wrong button after. Also, hitting space in between makes it hard to get into a good rhythm. I wonder how subjects would perform without it.",3,2,Female,English,Chrome,Windows,768,1366,3.479833333333333,
1292,list1,blue,vase_glass_green,color_incorrect,practice_4,,no,color,vase_glass_blue,3,,"[2982, 'no']",,practice_trial,vase_wood_green,,[],47,Yes,No,"There were a couple where I was trying to work quickly and realized I hit the wrong button after. Also, hitting space in between makes it hard to get into a good rhythm. I wonder how subjects would perform without it.",3,2,Female,English,Chrome,Windows,768,1366,3.479833333333333,
1292,list1,green,bag_plastic_blue,color_incorrect,practice_5,,no,color,bag_plastic_green,4,,"[3232, 'no']",,practice_trial,bag_paper_blue,,[],47,Yes,No,"There were a couple where I was trying to work quickly and realized I hit the wrong button after. Also, hitting space in between makes it hard to get into a good rhythm. I wonder how subjects would perform without it.",3,2,Female,English,Chrome,Windows,768,1366,3.479833333333333,
1292,list1,wooden,door_steel_yellow,material_correct,practice_6,,yes,material,door_steel_red,1,,"[5340, 'yes']",,practice_trial,door_wood_yellow,,[],47,Yes,No,"There were a couple where I was trying to work quickly and realized I hit the wrong button after. Also, hitting space in between makes it hard to get into a good rhythm. I wonder how subjects would perform without it.",3,2,Female,English,Chrome,Windows,768,1366,3.479833333333333,
1292,list1,green,cup_metal_green,color1_incorrect,cpg_cmg_cmb,cpg_cmg_cmb_2,no,color,cup_metal_blue,"['3', '4']",,"[2722, 'no']",,11,cup_plastic_green,,[],47,Yes,No,"There were a couple where I was trying to work quickly and realized I hit the wrong button after. Also, hitting space in between makes it hard to get into a good rhythm. I wonder how subjects would perform without it.",3,2,Female,English,Chrome,Windows,768,1366,3.479833333333333,
1292,list1,metal,chair_metal_green,material1_incorrect,cmp_cmg_cwg,cmp_cmg_cwg_1,no,material,chair_wood_green,"['3', '4']",,"[3850, 'yes']",,12,chair_metal_purple,,[],47,Yes,No,"There were a couple where I was trying to work quickly and realized I hit the wrong button after. Also, hitting space in between makes it hard to get into a good rhythm. I wonder how subjects would perform without it.",3,2,Female,English,Chrome,Windows,768,1366,3.479833333333333,
1292,list1,wooden,table_wood_blue,material2_correct,tmb_twb_twg,tmb_twb_twg_1,yes,material,table_wood_green,3,,"[3513, 'yes']",,13,table_metal_blue,,[],47,Yes,No,"There were a couple where I was trying to work quickly and realized I hit the wrong button after. Also, hitting space in between makes it hard to get into a good rhythm. I wonder how subjects would perform without it.",3,2,Female,English,Chrome,Windows,768,1366,3.479833333333333,
1292,list1,glass,bottle_glass_green,material2_incorrect,bpg_bgg_bgb,bpg_bgg_bgb_2,no,material,bottle_glass_blue,"['4', '5']",,"[3271, 'no']",,14,bottle_plastic_green,,[],47,Yes,No,"There were a couple where I was trying to work quickly and realized I hit the wrong button after. Also, hitting space in between makes it hard to get into a good rhythm. I wonder how subjects would perform without it.",3,2,Female,English,Chrome,Windows,768,1366,3.479833333333333,
1292,list1,blue,pitcher_plastic_blue,color1_correct,pmb_ppb_ppwo,pmb_ppb_ppwo_1,yes,color,pitcher_plastic_white_original,2,,"[3405, 'yes']",,15,pitcher_metal_blue,,[],47,Yes,No,"There were a couple where I was trying to work quickly and realized I hit the wrong button after. Also, hitting space in between makes it hard to get into a good rhythm. I wonder how subjects would perform without it.",3,2,Female,English,Chrome,Windows,768,1366,3.479833333333333,
1292,list1,metal,table_wood_blue,material1_incorrect,tmb_twb_twbo,tmb_twb_twbo_2,no,material,table_wood_brown_original,"['2', '3']",,"[3234, 'no']",,16,table_metal_blue,,[],47,Yes,No,"There were a couple where I was trying to work quickly and realized I hit the wrong button after. Also, hitting space in between makes it hard to get into a good rhythm. I wonder how subjects would perform without it.",3,2,Female,English,Chrome,Windows,768,1366,3.479833333333333,
1292,list1,plastic,plate_paper_blue,material1_correct,ppbo_ppb_ppwo,ppbo_ppb_ppwo_1,yes,material,plate_paper_white_original,1,,"[2802, 'yes']",,17,plate_plastic_blue_original,,[],47,Yes,No,"There were a couple where I was trying to work quickly and realized I hit the wrong button after. Also, hitting space in between makes it hard to get into a good rhythm. I wonder how subjects would perform without it.",3,2,Female,English,Chrome,Windows,768,1366,3.479833333333333,
1292,list1,metal,chair_metal_green,material1_correct,cmp_cmg_cpg,cmp_cmg_cpg_1,yes,material,chair_plastic_green,2,,"[2448, 'yes']",,18,chair_metal_purple,,[],47,Yes,No,"There were a couple where I was trying to work quickly and realized I hit the wrong button after. Also, hitting space in between makes it hard to get into a good rhythm. I wonder how subjects would perform without it.",3,2,Female,English,Chrome,Windows,768,1366,3.479833333333333,
1292,list1,denim,jacket_leather_purple,material1_correct,jdp_jlp_jlg,jdp_jlp_jlg_2,yes,material,jacket_leather_green,1,,"[4466, 'yes']",,19,jacket_denim_purple,,[],47,Yes,No,"There were a couple where I was trying to work quickly and realized I hit the wrong button after. Also, hitting space in between makes it hard to get into a good rhythm. I wonder how subjects would perform without it.",3,2,Female,English,Chrome,Windows,768,1366,3.479833333333333,
1292,list1,green,boot_leather_brown,color1_incorrect,blg_blb_brb,blg_blb_brb_2,no,color,boot_rubber_brown,"['2', '3']",,"[2632, 'no']",,20,boot_leather_green,,[],47,Yes,No,"There were a couple where I was trying to work quickly and realized I hit the wrong button after. Also, hitting space in between makes it hard to get into a good rhythm. I wonder how subjects would perform without it.",3,2,Female,English,Chrome,Windows,768,1366,3.479833333333333,
1292,list1,green,boot_leather_black_original,color1_correct,blg_blbo_brbo,blg_blbo_brbo_1,yes,color,boot_rubber_black_original,1,,"[2288, 'yes']",,21,boot_leather_green,,[],47,Yes,No,"There were a couple where I was trying to work quickly and realized I hit the wrong button after. Also, hitting space in between makes it hard to get into a good rhythm. I wonder how subjects would perform without it.",3,2,Female,English,Chrome,Windows,768,1366,3.479833333333333,
1292,list1,glass,bottle_plastic_green,material1_incorrect,bgg_bpg_bpb,bgg_bpg_bpb_1,no,material,bottle_plastic_blue,"['2', '3']",,"[5066, 'no']",,22,bottle_glass_green,,[],47,Yes,No,"There were a couple where I was trying to work quickly and realized I hit the wrong button after. Also, hitting space in between makes it hard to get into a good rhythm. I wonder how subjects would perform without it.",3,2,Female,English,Chrome,Windows,768,1366,3.479833333333333,
1292,list1,metal,table_metal_green,material1_correct,tmso_tmg_twg,tmso_tmg_twg_2,yes,material,table_wood_green,2,,"[2503, 'yes']",,23,table_metal_silver_original,,[],47,Yes,No,"There were a couple where I was trying to work quickly and realized I hit the wrong button after. Also, hitting space in between makes it hard to get into a good rhythm. I wonder how subjects would perform without it.",3,2,Female,English,Chrome,Windows,768,1366,3.479833333333333,
1292,list1,green,bottle_glass_green,color1_correct,bpg_bgg_bgco,bpg_bgg_bgco_1,yes,color,bottle_glass_clear_original,2,,"[2512, 'yes']",,24,bottle_plastic_green,,[],47,Yes,No,"There were a couple where I was trying to work quickly and realized I hit the wrong button after. Also, hitting space in between makes it hard to get into a good rhythm. I wonder how subjects would perform without it.",3,2,Female,English,Chrome,Windows,768,1366,3.479833333333333,
1292,list1,purple,chair_metal_purple,color2_correct,cmg_cmp_cpp,cmg_cmp_cpp_1,yes,color,chair_plastic_purple,3,,"[2982, 'yes']",,25,chair_metal_green,,[],47,Yes,No,"There were a couple where I was trying to work quickly and realized I hit the wrong button after. Also, hitting space in between makes it hard to get into a good rhythm. I wonder how subjects would perform without it.",3,2,Female,English,Chrome,Windows,768,1366,3.479833333333333,
1292,list1,blue,table_metal_blue,color2_incorrect,tmso_tmb_twb,tmso_tmb_twb_1,no,color,table_wood_blue,"['4', '5']",,"[3057, 'no']",,26,table_metal_silver_original,,[],47,Yes,No,"There were a couple where I was trying to work quickly and realized I hit the wrong button after. Also, hitting space in between makes it hard to get into a good rhythm. I wonder how subjects would perform without it.",3,2,Female,English,Chrome,Windows,768,1366,3.479833333333333,
1292,list1,plastic,plate_paper_green,material2_correct,ppb_ppg_ppg,ppb_ppg_ppg_2,yes,material,plate_plastic_green,2,,"[3037, 'yes']",,27,plate_paper_blue,,[],47,Yes,No,"There were a couple where I was trying to work quickly and realized I hit the wrong button after. Also, hitting space in between makes it hard to get into a good rhythm. I wonder how subjects would perform without it.",3,2,Female,English,Chrome,Windows,768,1366,3.479833333333333,
1292,list1,silver,cup_metal_green,color2_correct,cpg_cmg_cmso,cpg_cmg_cmso_2,yes,color,cup_metal_silver_original,2,,"[2697, 'yes']",,28,cup_plastic_green,,[],47,Yes,No,"There were a couple where I was trying to work quickly and realized I hit the wrong button after. Also, hitting space in between makes it hard to get into a good rhythm. I wonder how subjects would perform without it.",3,2,Female,English,Chrome,Windows,768,1366,3.479833333333333,
1292,list1,blue,plate_plastic_blue_original,color1_incorrect,ppb_ppbo_ppg,ppb_ppbo_ppg_1,no,color,plate_plastic_green,"['3', '4']",,"[2991, 'no']",,29,plate_paper_blue,,[],47,Yes,No,"There were a couple where I was trying to work quickly and realized I hit the wrong button after. Also, hitting space in between makes it hard to get into a good rhythm. I wonder how subjects would perform without it.",3,2,Female,English,Chrome,Windows,768,1366,3.479833333333333,
1292,list1,plastic,bottle_plastic_green,material2_correct,bgg_bpg_bpco,bgg_bpg_bpco_2,yes,material,bottle_plastic_clear_original,3,,"[3050, 'yes']",,30,bottle_glass_green,,[],47,Yes,No,"There were a couple where I was trying to work quickly and realized I hit the wrong button after. Also, hitting space in between makes it hard to get into a good rhythm. I wonder how subjects would perform without it.",3,2,Female,English,Chrome,Windows,768,1366,3.479833333333333,
1292,list1,black,jacket_leather_purple,color2_incorrect,jdp_jlp_jlbo,jdp_jlp_jlbo_2,no,color,jacket_leather_black_original,"['3', '4']",,"[3607, 'no']",,31,jacket_denim_purple,,[],47,Yes,No,"There were a couple where I was trying to work quickly and realized I hit the wrong button after. Also, hitting space in between makes it hard to get into a good rhythm. I wonder how subjects would perform without it.",3,2,Female,English,Chrome,Windows,768,1366,3.479833333333333,
