workerid,proliferate.condition,adjQuestion,competitorName,condition,contextID,contextVar,correctAnsQuestion,featureQuestion,notCompetitorName,numQuestion,object,response,rt,slide_number_in_experiment,targetName,utterance,catch_trials,subject_information.age,subject_information.asses,subject_information.color,subject_information.comments,subject_information.education,subject_information.enjoyment,subject_information.gender,subject_information.language,system.Browser,system.OS,system.screenH,system.screenW,time_in_minutes,error
1119,list6,,,,,,,,,,Barbara,Barbara,0,1,,bot_check,[],33,Yes,No,,3,1,Male,English,Chrome,Windows,2160,3840,2.2087333333333334,
1119,list6,blue,box_wood_blue,color_correct,practice_1,,yes,color,box_wood_brown,2,,"[4458, 'yes']",,practice_trial,box_cardboard_blue,,[],33,Yes,No,,3,1,Male,English,Chrome,Windows,2160,3840,2.2087333333333334,
1119,list6,plastic,ball_metal_red,material_incorrect,practice_2,,no,material,ball_plastic_red,4,,"[4016, 'yes']",,practice_trial,ball_metal_green,,[],33,Yes,No,,3,1,Male,English,Chrome,Windows,2160,3840,2.2087333333333334,
1119,list6,metal,bowl_glass_blue,material_correct,practice_3,,yes,material,bowl_metal_blue,2,,"[3527, 'yes']",,practice_trial,bowl_glass_green,,[],33,Yes,No,,3,1,Male,English,Chrome,Windows,2160,3840,2.2087333333333334,
1119,list6,blue,vase_glass_green,color_incorrect,practice_4,,no,color,vase_glass_blue,3,,"[3295, 'yes']",,practice_trial,vase_wood_green,,[],33,Yes,No,,3,1,Male,English,Chrome,Windows,2160,3840,2.2087333333333334,
1119,list6,green,bag_plastic_blue,color_incorrect,practice_5,,no,color,bag_plastic_green,4,,"[2934, 'no']",,practice_trial,bag_paper_blue,,[],33,Yes,No,,3,1,Male,English,Chrome,Windows,2160,3840,2.2087333333333334,
1119,list6,wooden,door_steel_yellow,material_correct,practice_6,,yes,material,door_steel_red,1,,"[4199, 'yes']",,practice_trial,door_wood_yellow,,[],33,Yes,No,,3,1,Male,English,Chrome,Windows,2160,3840,2.2087333333333334,
1119,list6,purple,jacket_leather_purple,color1_incorrect,jdp_jlp_jlg,jdp_jlp_jlg_1,no,color,jacket_leather_green,"['3', '4']",,"[2498, 'no']",,11,jacket_denim_purple,,[],33,Yes,No,,3,1,Male,English,Chrome,Windows,2160,3840,2.2087333333333334,
1119,list6,plastic,chair_metal_purple,material2_incorrect,cmg_cmp_cpp,cmg_cmp_cpp_2,no,material,chair_plastic_purple,"['3', '4']",,"[3655, 'yes']",,12,chair_metal_green,,[],33,Yes,No,,3,1,Male,English,Chrome,Windows,2160,3840,2.2087333333333334,
1119,list6,brown,table_wood_blue,color2_correct,tmb_twb_twbo,tmb_twb_twbo_2,yes,color,table_wood_brown_original,2,,"[2264, 'yes']",,13,table_metal_blue,,[],33,Yes,No,,3,1,Male,English,Chrome,Windows,2160,3840,2.2087333333333334,
1119,list6,blue,plate_paper_blue,color1_incorrect,ppbo_ppb_ppwo,ppbo_ppb_ppwo_2,no,color,plate_paper_white_original,"['3', '4']",,"[2315, 'no']",,14,plate_plastic_blue_original,,[],33,Yes,No,,3,1,Male,English,Chrome,Windows,2160,3840,2.2087333333333334,
1119,list6,green,chair_metal_purple,color1_correct,cmg_cmp_cwp,cmg_cmp_cwp_1,yes,color,chair_wood_purple,1,,"[2271, 'yes']",,15,chair_metal_green,,[],33,Yes,No,,3,1,Male,English,Chrome,Windows,2160,3840,2.2087333333333334,
1119,list6,clear,bottle_plastic_green,color2_incorrect,bgg_bpg_bpco,bgg_bpg_bpco_1,no,color,bottle_plastic_clear_original,"['3', '4']",,"[2598, 'yes']",,16,bottle_glass_green,,[],33,Yes,No,,3,1,Male,English,Chrome,Windows,2160,3840,2.2087333333333334,
1119,list6,clear,pitcher_glass_blue,color2_correct,pmb_pgb_pgco,pmb_pgb_pgco_1,yes,color,pitcher_glass_clear_original,2,,"[2366, 'yes']",,17,pitcher_metal_blue,,[],33,Yes,No,,3,1,Male,English,Chrome,Windows,2160,3840,2.2087333333333334,
1119,list6,blue,bottle_plastic_green,color2_correct,bgg_bpg_bpb,bgg_bpg_bpb_2,yes,color,bottle_plastic_blue,2,,"[2469, 'yes']",,18,bottle_glass_green,,[],33,Yes,No,,3,1,Male,English,Chrome,Windows,2160,3840,2.2087333333333334,
1119,list6,leather,boot_leather_black_original,material1_incorrect,blg_blbo_brbo,blg_blbo_brbo_1,no,material,boot_rubber_black_original,"['3', '4']",,"[4432, 'no']",,19,boot_leather_green,,[],33,Yes,No,,3,1,Male,English,Chrome,Windows,2160,3840,2.2087333333333334,
1119,list6,purple,chair_metal_green,color1_incorrect,cmp_cmg_cpg,cmp_cmg_cpg_1,no,color,chair_plastic_green,"['2', '3']",,"[2160, 'no']",,20,chair_metal_purple,,[],33,Yes,No,,3,1,Male,English,Chrome,Windows,2160,3840,2.2087333333333334,
1119,list6,metal,cup_metal_green,material2_correct,cpg_cmg_cmb,cpg_cmg_cmb_1,yes,material,cup_metal_blue,3,,"[2702, 'yes']",,21,cup_plastic_green,,[],33,Yes,No,,3,1,Male,English,Chrome,Windows,2160,3840,2.2087333333333334,
1119,list6,metal,pitcher_plastic_blue,material1_incorrect,pmb_ppb_ppwo,pmb_ppb_ppwo_1,no,material,pitcher_plastic_white_original,"['2', '3']",,"[2521, 'yes']",,22,pitcher_metal_blue,,[],33,Yes,No,,3,1,Male,English,Chrome,Windows,2160,3840,2.2087333333333334,
1119,list6,silver,table_metal_blue,color1_correct,tmso_tmb_twb,tmso_tmb_twb_1,yes,color,table_wood_blue,1,,"[2555, 'yes']",,23,table_metal_silver_original,,[],33,Yes,No,,3,1,Male,English,Chrome,Windows,2160,3840,2.2087333333333334,
1119,list6,wood,table_metal_blue,material2_incorrect,tmg_tmb_twb,tmg_tmb_twb_2,no,material,table_wood_blue,"['3', '4']",,"[2452, 'yes']",,24,table_metal_green,,[],33,Yes,No,,3,1,Male,English,Chrome,Windows,2160,3840,2.2087333333333334,
1119,list6,plastic,bottle_glass_green,material1_incorrect,bpg_bgg_bgco,bpg_bgg_bgco_2,no,material,bottle_glass_clear_original,"['2', '3']",,"[2652, 'no']",,25,bottle_plastic_green,,[],33,Yes,No,,3,1,Male,English,Chrome,Windows,2160,3840,2.2087333333333334,
1119,list6,wood,spoon_wood_blue,material1_incorrect,swg_swb_spb,swg_swb_spb_1,no,material,spoon_plastic_blue,"['3', '4']",,"[3174, 'no']",,26,spoon_wood_green,,[],33,Yes,No,,3,1,Male,English,Chrome,Windows,2160,3840,2.2087333333333334,
1119,list6,green,table_wood_blue,color2_incorrect,tmb_twb_twg,tmb_twb_twg_2,no,color,table_wood_green,"['3', '4']",,"[2115, 'no']",,27,table_metal_blue,,[],33,Yes,No,,3,1,Male,English,Chrome,Windows,2160,3840,2.2087333333333334,
1119,list6,green,plate_paper_green,color2_incorrect,ppb_ppg_ppg,ppb_ppg_ppg_1,no,color,plate_plastic_green,"['4', '5']",,"[2760, 'no']",,28,plate_paper_blue,,[],33,Yes,No,,3,1,Male,English,Chrome,Windows,2160,3840,2.2087333333333334,
1119,list6,metal,cup_metal_green,material2_incorrect,cpg_cmg_cmso,cpg_cmg_cmso_2,no,material,cup_metal_silver_original,"['4', '5']",,"[3432, 'no']",,29,cup_plastic_green,,[],33,Yes,No,,3,1,Male,English,Chrome,Windows,2160,3840,2.2087333333333334,
1119,list6,plastic,plate_plastic_blue_original,material2_correct,ppb_ppbo_ppg,ppb_ppbo_ppg_1,yes,material,plate_plastic_green,3,,"[2115, 'no']",,30,plate_paper_blue,,[],33,Yes,No,,3,1,Male,English,Chrome,Windows,2160,3840,2.2087333333333334,
1119,list6,green,pitcher_glass_blue,color2_incorrect,pmb_pgb_pgg,pmb_pgb_pgg_2,no,color,pitcher_glass_green,"['3', '4']",,"[2657, 'no']",,31,pitcher_metal_blue,,[],33,Yes,No,,3,1,Male,English,Chrome,Windows,2160,3840,2.2087333333333334,
1119,list6,green,chair_metal_green,color2_correct,cmp_cmg_cwg,cmp_cmg_cwg_1,yes,color,chair_wood_green,3,,"[2217, 'yes']",,32,chair_metal_purple,,[],33,Yes,No,,3,1,Male,English,Chrome,Windows,2160,3840,2.2087333333333334,
1119,list6,wood,table_metal_green,material2_correct,tmb_tmg_twg,tmb_tmg_twg_2,yes,material,table_wood_green,2,,"[2063, 'yes']",,33,table_metal_blue,,[],33,Yes,No,,3,1,Male,English,Chrome,Windows,2160,3840,2.2087333333333334,
1119,list6,blue,plate_paper_blue,color1_correct,ppbo_ppb_ppg,ppbo_ppb_ppg_1,yes,color,plate_paper_green,2,,"[2003, 'no']",,34,plate_plastic_blue_original,,[],33,Yes,No,,3,1,Male,English,Chrome,Windows,2160,3840,2.2087333333333334,
1119,list6,plastic,plate_plastic_blue_original,material2_incorrect,ppb_ppbo_ppp,ppb_ppbo_ppp_1,no,material,plate_plastic_pink,"['4', '5']",,"[2139, 'yes']",,35,plate_paper_blue,,[],33,Yes,No,,3,1,Male,English,Chrome,Windows,2160,3840,2.2087333333333334,
1119,list6,rubber,boot_leather_brown,material2_correct,blg_blb_brb,blg_blb_brb_1,yes,material,boot_rubber_brown,2,,"[2218, 'yes']",,36,boot_leather_green,,[],33,Yes,No,,3,1,Male,English,Chrome,Windows,2160,3840,2.2087333333333334,
1119,list6,silver,table_metal_green,color1_incorrect,tmso_tmg_twg,tmso_tmg_twg_2,no,color,table_wood_green,"['2', '3']",,"[1624, 'yes']",,37,table_metal_silver_original,,[],33,Yes,No,,3,1,Male,English,Chrome,Windows,2160,3840,2.2087333333333334,
1119,list6,wood,spoon_wood_blue,material1_correct,swg_swb_smb,swg_swb_smb_2,yes,material,spoon_metal_blue,2,,"[2166, 'yes']",,38,spoon_wood_green,,[],33,Yes,No,,3,1,Male,English,Chrome,Windows,2160,3840,2.2087333333333334,
1119,list6,metal,pitcher_plastic_blue,material1_correct,pmb_ppb_ppg,pmb_ppb_ppg_1,yes,material,pitcher_plastic_green,1,,"[1599, 'yes']",,39,pitcher_metal_blue,,[],33,Yes,No,,3,1,Male,English,Chrome,Windows,2160,3840,2.2087333333333334,
1119,list6,purple,jacket_leather_purple,color1_correct,jdp_jlp_jlbo,jdp_jlp_jlbo_2,yes,color,jacket_leather_black_original,2,,"[1392, 'yes']",,40,jacket_denim_purple,,[],33,Yes,No,,3,1,Male,English,Chrome,Windows,2160,3840,2.2087333333333334,
1119,list6,plastic,bottle_glass_green,material1_correct,bpg_bgg_bgb,bpg_bgg_bgb_2,yes,material,bottle_glass_blue,1,,"[2296, 'yes']",,41,bottle_plastic_green,,[],33,Yes,No,,3,1,Male,English,Chrome,Windows,2160,3840,2.2087333333333334,
1118,list2,,,,,,,,,,Sarah,Sarah,0,1,,bot_check,[],37,Yes,No,,4,1,Female,english,Chrome,Windows,768,1366,2.7931166666666667,
1118,list2,blue,box_wood_blue,color_correct,practice_1,,yes,color,box_wood_brown,2,,"[3499, 'yes']",,practice_trial,box_cardboard_blue,,[],37,Yes,No,,4,1,Female,english,Chrome,Windows,768,1366,2.7931166666666667,
1118,list2,plastic,ball_metal_red,material_incorrect,practice_2,,no,material,ball_plastic_red,4,,"[3053, 'yes']",,practice_trial,ball_metal_green,,[],37,Yes,No,,4,1,Female,english,Chrome,Windows,768,1366,2.7931166666666667,
1118,list2,metal,bowl_glass_blue,material_correct,practice_3,,yes,material,bowl_metal_blue,2,,"[3547, 'yes']",,practice_trial,bowl_glass_green,,[],37,Yes,No,,4,1,Female,english,Chrome,Windows,768,1366,2.7931166666666667,
1118,list2,blue,vase_glass_green,color_incorrect,practice_4,,no,color,vase_glass_blue,3,,"[3740, 'yes']",,practice_trial,vase_wood_green,,[],37,Yes,No,,4,1,Female,english,Chrome,Windows,768,1366,2.7931166666666667,
1118,list2,green,bag_plastic_blue,color_incorrect,practice_5,,no,color,bag_plastic_green,4,,"[4090, 'yes']",,practice_trial,bag_paper_blue,,[],37,Yes,No,,4,1,Female,english,Chrome,Windows,768,1366,2.7931166666666667,
1118,list2,wooden,door_steel_yellow,material_correct,practice_6,,yes,material,door_steel_red,1,,"[4889, 'yes']",,practice_trial,door_wood_yellow,,[],37,Yes,No,,4,1,Female,english,Chrome,Windows,768,1366,2.7931166666666667,
1118,list2,plastic,bottle_plastic_green,material2_incorrect,bgg_bpg_bpco,bgg_bpg_bpco_1,no,material,bottle_plastic_clear_original,"['4', '5']",,"[3823, 'no']",,11,bottle_glass_green,,[],37,Yes,No,,4,1,Female,english,Chrome,Windows,768,1366,2.7931166666666667,
1118,list2,metal,chair_metal_purple,material1_correct,cmg_cmp_cwp,cmg_cmp_cwp_2,yes,material,chair_wood_purple,2,,"[3211, 'yes']",,12,chair_metal_green,,[],37,Yes,No,,4,1,Female,english,Chrome,Windows,768,1366,2.7931166666666667,
1118,list2,metal,chair_metal_green,material1_incorrect,cmp_cmg_cpg,cmp_cmg_cpg_2,no,material,chair_plastic_green,"['3', '4']",,"[4527, 'yes']",,13,chair_metal_purple,,[],37,Yes,No,,4,1,Female,english,Chrome,Windows,768,1366,2.7931166666666667,
1118,list2,metal,table_metal_green,material1_incorrect,tmso_tmg_twg,tmso_tmg_twg_1,no,material,table_wood_green,"['3', '4']",,"[2992, 'yes']",,14,table_metal_silver_original,,[],37,Yes,No,,4,1,Female,english,Chrome,Windows,768,1366,2.7931166666666667,
1118,list2,plastic,plate_paper_blue,material1_correct,ppbo_ppb_ppg,ppbo_ppb_ppg_1,yes,material,plate_paper_green,1,,"[3225, 'no']",,15,plate_plastic_blue_original,,[],37,Yes,No,,4,1,Female,english,Chrome,Windows,768,1366,2.7931166666666667,
1118,list2,plastic,plate_paper_blue,material1_incorrect,ppbo_ppb_ppwo,ppbo_ppb_ppwo_2,no,material,plate_paper_white_original,"['2', '3']",,"[2992, 'yes']",,16,plate_plastic_blue_original,,[],37,Yes,No,,4,1,Female,english,Chrome,Windows,768,1366,2.7931166666666667,
1118,list2,glass,pitcher_glass_blue,material2_incorrect,pmb_pgb_pgg,pmb_pgb_pgg_2,no,material,pitcher_glass_green,"['4', '5']",,"[4419, 'yes']",,17,pitcher_metal_blue,,[],37,Yes,No,,4,1,Female,english,Chrome,Windows,768,1366,2.7931166666666667,
1118,list2,blue,table_metal_blue,color2_incorrect,tmg_tmb_twb,tmg_tmb_twb_1,no,color,table_wood_blue,"['4', '5']",,"[6131, 'no']",,18,table_metal_green,,[],37,Yes,No,,4,1,Female,english,Chrome,Windows,768,1366,2.7931166666666667,
1118,list2,green,spoon_wood_blue,color1_correct,swg_swb_smb,swg_swb_smb_2,yes,color,spoon_metal_blue,1,,"[2974, 'yes']",,19,spoon_wood_green,,[],37,Yes,No,,4,1,Female,english,Chrome,Windows,768,1366,2.7931166666666667,
1118,list2,blue,cup_metal_green,color2_correct,cpg_cmg_cmb,cpg_cmg_cmb_2,yes,color,cup_metal_blue,2,,"[2512, 'yes']",,20,cup_plastic_green,,[],37,Yes,No,,4,1,Female,english,Chrome,Windows,768,1366,2.7931166666666667,
1118,list2,plastic,bottle_plastic_green,material2_correct,bgg_bpg_bpb,bgg_bpg_bpb_2,yes,material,bottle_plastic_blue,3,,"[7253, 'yes']",,21,bottle_glass_green,,[],37,Yes,No,,4,1,Female,english,Chrome,Windows,768,1366,2.7931166666666667,
1118,list2,silver,cup_metal_green,color2_incorrect,cpg_cmg_cmso,cpg_cmg_cmso_1,no,color,cup_metal_silver_original,"['3', '4']",,"[3344, 'yes']",,22,cup_plastic_green,,[],37,Yes,No,,4,1,Female,english,Chrome,Windows,768,1366,2.7931166666666667,
1118,list2,green,bottle_glass_green,color1_incorrect,bpg_bgg_bgco,bpg_bgg_bgco_2,no,color,bottle_glass_clear_original,"['3', '4']",,"[2614, 'yes']",,23,bottle_plastic_green,,[],37,Yes,No,,4,1,Female,english,Chrome,Windows,768,1366,2.7931166666666667,
1118,list2,wood,chair_metal_green,material2_correct,cmp_cmg_cwg,cmp_cmg_cwg_1,yes,material,chair_wood_green,2,,"[4110, 'yes']",,24,chair_metal_purple,,[],37,Yes,No,,4,1,Female,english,Chrome,Windows,768,1366,2.7931166666666667,
1118,list2,blue,pitcher_plastic_blue,color1_incorrect,pmb_ppb_ppwo,pmb_ppb_ppwo_2,no,color,pitcher_plastic_white_original,"['3', '4']",,"[3877, 'yes']",,25,pitcher_metal_blue,,[],37,Yes,No,,4,1,Female,english,Chrome,Windows,768,1366,2.7931166666666667,
1118,list2,green,boot_leather_black_original,color1_incorrect,blg_blbo_brbo,blg_blbo_brbo_1,no,color,boot_rubber_black_original,"['2', '3']",,"[6788, 'no']",,26,boot_leather_green,,[],37,Yes,No,,4,1,Female,english,Chrome,Windows,768,1366,2.7931166666666667,
1118,list2,brown,boot_leather_brown,color2_correct,blg_blb_brb,blg_blb_brb_2,yes,color,boot_rubber_brown,3,,"[2722, 'yes']",,27,boot_leather_green,,[],37,Yes,No,,4,1,Female,english,Chrome,Windows,768,1366,2.7931166666666667,
1118,list2,glass,pitcher_glass_blue,material2_correct,pmb_pgb_pgco,pmb_pgb_pgco_1,yes,material,pitcher_glass_clear_original,3,,"[2149, 'yes']",,28,pitcher_metal_blue,,[],37,Yes,No,,4,1,Female,english,Chrome,Windows,768,1366,2.7931166666666667,
1118,list2,metal,table_metal_blue,material1_correct,tmso_tmb_twb,tmso_tmb_twb_1,yes,material,table_wood_blue,2,,"[2256, 'no']",,29,table_metal_silver_original,,[],37,Yes,No,,4,1,Female,english,Chrome,Windows,768,1366,2.7931166666666667,
1118,list2,wood,table_wood_blue,material2_correct,tmb_twb_twbo,tmb_twb_twbo_1,yes,material,table_wood_brown_original,3,,"[2528, 'yes']",,30,table_metal_blue,,[],37,Yes,No,,4,1,Female,english,Chrome,Windows,768,1366,2.7931166666666667,
1118,list2,denim,jacket_leather_purple,material1_correct,jdp_jlp_jlbo,jdp_jlp_jlbo_2,yes,material,jacket_leather_black_original,1,,"[2895, 'yes']",,31,jacket_denim_purple,,[],37,Yes,No,,4,1,Female,english,Chrome,Windows,768,1366,2.7931166666666667,
1118,list2,wood,table_wood_blue,material2_incorrect,tmb_twb_twg,tmb_twb_twg_2,no,material,table_wood_green,"['4', '5']",,"[2632, 'no']",,32,table_metal_blue,,[],37,Yes,No,,4,1,Female,english,Chrome,Windows,768,1366,2.7931166666666667,
1118,list2,green,plate_plastic_blue_original,color2_correct,ppb_ppbo_ppg,ppb_ppbo_ppg_2,yes,color,plate_plastic_green,2,,"[2006, 'yes']",,33,plate_paper_blue,,[],37,Yes,No,,4,1,Female,english,Chrome,Windows,768,1366,2.7931166666666667,
1118,list2,pink,plate_plastic_blue_original,color2_incorrect,ppb_ppbo_ppp,ppb_ppbo_ppp_2,no,color,plate_plastic_pink,"['3', '4']",,"[2159, 'yes']",,34,plate_paper_blue,,[],37,Yes,No,,4,1,Female,english,Chrome,Windows,768,1366,2.7931166666666667,
1118,list2,denim,jacket_leather_purple,material1_incorrect,jdp_jlp_jlg,jdp_jlp_jlg_2,no,material,jacket_leather_green,"['2', '3']",,"[2343, 'yes']",,35,jacket_denim_purple,,[],37,Yes,No,,4,1,Female,english,Chrome,Windows,768,1366,2.7931166666666667,
1118,list2,purple,chair_metal_purple,color2_incorrect,cmg_cmp_cpp,cmg_cmp_cpp_1,no,color,chair_plastic_purple,"['4', '5']",,"[2400, 'no']",,36,chair_metal_green,,[],37,Yes,No,,4,1,Female,english,Chrome,Windows,768,1366,2.7931166666666667,
1118,list2,blue,pitcher_plastic_blue,color1_correct,pmb_ppb_ppg,pmb_ppb_ppg_1,yes,color,pitcher_plastic_green,2,,"[2574, 'yes']",,37,pitcher_metal_blue,,[],37,Yes,No,,4,1,Female,english,Chrome,Windows,768,1366,2.7931166666666667,
1118,list2,green,spoon_wood_blue,color1_incorrect,swg_swb_spb,swg_swb_spb_2,no,color,spoon_plastic_blue,"['2', '3']",,"[1821, 'no']",,38,spoon_wood_green,,[],37,Yes,No,,4,1,Female,english,Chrome,Windows,768,1366,2.7931166666666667,
1118,list2,plastic,plate_paper_green,material2_incorrect,ppb_ppg_ppg,ppb_ppg_ppg_2,no,material,plate_plastic_green,"['3', '4']",,"[3123, 'no']",,39,plate_paper_blue,,[],37,Yes,No,,4,1,Female,english,Chrome,Windows,768,1366,2.7931166666666667,
1118,list2,green,bottle_glass_green,color1_correct,bpg_bgg_bgb,bpg_bgg_bgb_2,yes,color,bottle_glass_blue,2,,"[3444, 'yes']",,40,bottle_plastic_green,,[],37,Yes,No,,4,1,Female,english,Chrome,Windows,768,1366,2.7931166666666667,
1118,list2,green,table_metal_green,color2_correct,tmb_tmg_twg,tmb_tmg_twg_1,yes,color,table_wood_green,3,,"[1983, 'yes']",,41,table_metal_blue,,[],37,Yes,No,,4,1,Female,english,Chrome,Windows,768,1366,2.7931166666666667,
1117,list3,,,,,,,,,,Barbara,Barbara,0,1,,bot_check,[],34,Yes,No,,4,2,Female,English,Chrome,Windows,864,1536,2.8265666666666664,
1117,list3,blue,box_wood_blue,color_correct,practice_1,,yes,color,box_wood_brown,2,,"[4643, 'yes']",,practice_trial,box_cardboard_blue,,[],34,Yes,No,,4,2,Female,English,Chrome,Windows,864,1536,2.8265666666666664,
1117,list3,plastic,ball_metal_red,material_incorrect,practice_2,,no,material,ball_plastic_red,4,,"[4352, 'yes']",,practice_trial,ball_metal_green,,[],34,Yes,No,,4,2,Female,English,Chrome,Windows,864,1536,2.8265666666666664,
1117,list3,metal,bowl_glass_blue,material_correct,practice_3,,yes,material,bowl_metal_blue,2,,"[3227, 'no']",,practice_trial,bowl_glass_green,,[],34,Yes,No,,4,2,Female,English,Chrome,Windows,864,1536,2.8265666666666664,
1117,list3,blue,vase_glass_green,color_incorrect,practice_4,,no,color,vase_glass_blue,3,,"[4156, 'no']",,practice_trial,vase_wood_green,,[],34,Yes,No,,4,2,Female,English,Chrome,Windows,864,1536,2.8265666666666664,
1117,list3,green,bag_plastic_blue,color_incorrect,practice_5,,no,color,bag_plastic_green,4,,"[4523, 'no']",,practice_trial,bag_paper_blue,,[],34,Yes,No,,4,2,Female,English,Chrome,Windows,864,1536,2.8265666666666664,
1117,list3,wooden,door_steel_yellow,material_correct,practice_6,,yes,material,door_steel_red,1,,"[4459, 'no']",,practice_trial,door_wood_yellow,,[],34,Yes,No,,4,2,Female,English,Chrome,Windows,864,1536,2.8265666666666664,
1117,list3,metal,chair_metal_purple,material1_correct,cmg_cmp_cpp,cmg_cmp_cpp_1,yes,material,chair_plastic_purple,2,,"[4794, 'yes']",,11,chair_metal_green,,[],34,Yes,No,,4,2,Female,English,Chrome,Windows,864,1536,2.8265666666666664,
1117,list3,plastic,cup_metal_green,material1_correct,cpg_cmg_cmso,cpg_cmg_cmso_1,yes,material,cup_metal_silver_original,1,,"[3005, 'yes']",,12,cup_plastic_green,,[],34,Yes,No,,4,2,Female,English,Chrome,Windows,864,1536,2.8265666666666664,
1117,list3,green,plate_plastic_blue_original,color2_incorrect,ppb_ppbo_ppg,ppb_ppbo_ppg_2,no,color,plate_plastic_green,"['3', '4']",,"[2505, 'no']",,13,plate_paper_blue,,[],34,Yes,No,,4,2,Female,English,Chrome,Windows,864,1536,2.8265666666666664,
1117,list3,denim,jacket_leather_purple,material1_incorrect,jdp_jlp_jlbo,jdp_jlp_jlbo_1,no,material,jacket_leather_black_original,"['2', '3']",,"[3820, 'no']",,14,jacket_denim_purple,,[],34,Yes,No,,4,2,Female,English,Chrome,Windows,864,1536,2.8265666666666664,
1117,list3,green,table_metal_green,color2_incorrect,tmb_tmg_twg,tmb_tmg_twg_2,no,color,table_wood_green,"['4', '5']",,"[2677, 'no']",,15,table_metal_blue,,[],34,Yes,No,,4,2,Female,English,Chrome,Windows,864,1536,2.8265666666666664,
1117,list3,green,bottle_glass_green,color1_incorrect,bpg_bgg_bgb,bpg_bgg_bgb_1,no,color,bottle_glass_blue,"['3', '4']",,"[2023, 'no']",,16,bottle_plastic_green,,[],34,Yes,No,,4,2,Female,English,Chrome,Windows,864,1536,2.8265666666666664,
1117,list3,green,spoon_wood_blue,color1_incorrect,swg_swb_smb,swg_swb_smb_1,no,color,spoon_metal_blue,"['2', '3']",,"[2383, 'no']",,17,spoon_wood_green,,[],34,Yes,No,,4,2,Female,English,Chrome,Windows,864,1536,2.8265666666666664,
1117,list3,metal,chair_metal_purple,material1_incorrect,cmg_cmp_cwp,cmg_cmp_cwp_2,no,material,chair_wood_purple,"['3', '4']",,"[3000, 'no']",,18,chair_metal_green,,[],34,Yes,No,,4,2,Female,English,Chrome,Windows,864,1536,2.8265666666666664,
1117,list3,metal,table_metal_blue,material1_correct,tmg_tmb_twb,tmg_tmb_twb_1,yes,material,table_wood_blue,2,,"[2911, 'yes']",,19,table_metal_green,,[],34,Yes,No,,4,2,Female,English,Chrome,Windows,864,1536,2.8265666666666664,
1117,list3,blue,cup_metal_green,color2_incorrect,cpg_cmg_cmb,cpg_cmg_cmb_1,no,color,cup_metal_blue,"['3', '4']",,"[2285, 'no']",,20,cup_plastic_green,,[],34,Yes,No,,4,2,Female,English,Chrome,Windows,864,1536,2.8265666666666664,
1117,list3,blue,pitcher_glass_blue,color1_correct,pmb_pgb_pgg,pmb_pgb_pgg_1,yes,color,pitcher_glass_green,2,,"[2502, 'yes']",,21,pitcher_metal_blue,,[],34,Yes,No,,4,2,Female,English,Chrome,Windows,864,1536,2.8265666666666664,
1117,list3,blue,table_wood_blue,color1_correct,tmb_twb_twg,tmb_twb_twg_1,yes,color,table_wood_green,2,,"[2324, 'yes']",,22,table_metal_blue,,[],34,Yes,No,,4,2,Female,English,Chrome,Windows,864,1536,2.8265666666666664,
1117,list3,leather,jacket_leather_purple,material2_correct,jdp_jlp_jlg,jdp_jlp_jlg_2,yes,material,jacket_leather_green,3,,"[2382, 'yes']",,23,jacket_denim_purple,,[],34,Yes,No,,4,2,Female,English,Chrome,Windows,864,1536,2.8265666666666664,
1117,list3,wood,table_metal_green,material2_correct,tmso_tmg_twg,tmso_tmg_twg_1,yes,material,table_wood_green,2,,"[3453, 'no']",,24,table_metal_silver_original,,[],34,Yes,No,,4,2,Female,English,Chrome,Windows,864,1536,2.8265666666666664,
1117,list3,plastic,bottle_plastic_green,material2_incorrect,bgg_bpg_bpb,bgg_bpg_bpb_1,no,material,bottle_plastic_blue,"['4', '5']",,"[3667, 'no']",,25,bottle_glass_green,,[],34,Yes,No,,4,2,Female,English,Chrome,Windows,864,1536,2.8265666666666664,
1117,list3,brown,boot_leather_brown,color2_incorrect,blg_blb_brb,blg_blb_brb_2,no,color,boot_rubber_brown,"['4', '5']",,"[2171, 'no']",,26,boot_leather_green,,[],34,Yes,No,,4,2,Female,English,Chrome,Windows,864,1536,2.8265666666666664,
1117,list3,white,pitcher_plastic_blue,color2_correct,pmb_ppb_ppwo,pmb_ppb_ppwo_1,yes,color,pitcher_plastic_white_original,2,,"[2207, 'yes']",,27,pitcher_metal_blue,,[],34,Yes,No,,4,2,Female,English,Chrome,Windows,864,1536,2.8265666666666664,
1117,list3,clear,bottle_glass_green,color2_correct,bpg_bgg_bgco,bpg_bgg_bgco_2,yes,color,bottle_glass_clear_original,2,,"[2028, 'yes']",,28,bottle_plastic_green,,[],34,Yes,No,,4,2,Female,English,Chrome,Windows,864,1536,2.8265666666666664,
1117,list3,blue,spoon_wood_blue,color2_correct,swg_swb_spb,swg_swb_spb_1,yes,color,spoon_plastic_blue,3,,"[2286, 'yes']",,29,spoon_wood_green,,[],34,Yes,No,,4,2,Female,English,Chrome,Windows,864,1536,2.8265666666666664,
1117,list3,wood,chair_metal_green,material2_incorrect,cmp_cmg_cwg,cmp_cmg_cwg_1,no,material,chair_wood_green,"['3', '4']",,"[2518, 'no']",,30,chair_metal_purple,,[],34,Yes,No,,4,2,Female,English,Chrome,Windows,864,1536,2.8265666666666664,
1117,list3,plastic,plate_paper_blue,material1_incorrect,ppbo_ppb_ppg,ppbo_ppb_ppg_2,no,material,plate_paper_green,"['2', '3']",,"[4144, 'no']",,31,plate_plastic_blue_original,,[],34,Yes,No,,4,2,Female,English,Chrome,Windows,864,1536,2.8265666666666664,
1117,list3,blue,pitcher_plastic_blue,color1_incorrect,pmb_ppb_ppg,pmb_ppb_ppg_2,no,color,pitcher_plastic_green,"['3', '4']",,"[2237, 'no']",,32,pitcher_metal_blue,,[],34,Yes,No,,4,2,Female,English,Chrome,Windows,864,1536,2.8265666666666664,
1117,list3,blue,plate_paper_green,color1_correct,ppb_ppg_ppg,ppb_ppg_ppg_2,yes,color,plate_plastic_green,1,,"[1701, 'yes']",,33,plate_paper_blue,,[],34,Yes,No,,4,2,Female,English,Chrome,Windows,864,1536,2.8265666666666664,
1117,list3,black,boot_leather_black_original,color2_correct,blg_blbo_brbo,blg_blbo_brbo_1,yes,color,boot_rubber_black_original,3,,"[2245, 'yes']",,34,boot_leather_green,,[],34,Yes,No,,4,2,Female,English,Chrome,Windows,864,1536,2.8265666666666664,
1117,list3,plastic,chair_metal_green,material2_correct,cmp_cmg_cpg,cmp_cmg_cpg_2,yes,material,chair_plastic_green,2,,"[2969, 'yes']",,35,chair_metal_purple,,[],34,Yes,No,,4,2,Female,English,Chrome,Windows,864,1536,2.8265666666666664,
1117,list3,metal,table_metal_blue,material1_incorrect,tmso_tmb_twb,tmso_tmb_twb_2,no,material,table_wood_blue,"['3', '4']",,"[2094, 'no']",,36,table_metal_silver_original,,[],34,Yes,No,,4,2,Female,English,Chrome,Windows,864,1536,2.8265666666666664,
1117,list3,paper,plate_plastic_blue_original,material1_correct,ppb_ppbo_ppp,ppb_ppbo_ppp_2,yes,material,plate_plastic_pink,1,,"[2850, 'yes']",,37,plate_paper_blue,,[],34,Yes,No,,4,2,Female,English,Chrome,Windows,864,1536,2.8265666666666664,
1117,list3,glass,pitcher_glass_blue,material2_incorrect,pmb_pgb_pgco,pmb_pgb_pgco_1,no,material,pitcher_glass_clear_original,"['4', '5']",,"[3408, 'no']",,38,pitcher_metal_blue,,[],34,Yes,No,,4,2,Female,English,Chrome,Windows,864,1536,2.8265666666666664,
1117,list3,green,bottle_plastic_green,color1_correct,bgg_bpg_bpco,bgg_bpg_bpco_1,yes,color,bottle_plastic_clear_original,2,,"[1843, 'yes']",,39,bottle_glass_green,,[],34,Yes,No,,4,2,Female,English,Chrome,Windows,864,1536,2.8265666666666664,
1117,list3,wood,table_wood_blue,material2_incorrect,tmb_twb_twbo,tmb_twb_twbo_2,no,material,table_wood_brown_original,"['4', '5']",,"[2282, 'no']",,40,table_metal_blue,,[],34,Yes,No,,4,2,Female,English,Chrome,Windows,864,1536,2.8265666666666664,
1117,list3,paper,plate_paper_blue,material2_correct,ppbo_ppb_ppwo,ppbo_ppb_ppwo_2,yes,material,plate_paper_white_original,3,,"[2229, 'yes']",,41,plate_plastic_blue_original,,[],34,Yes,No,,4,2,Female,English,Chrome,Windows,864,1536,2.8265666666666664,
1116,list4,,,,,,,,,,Susan,Susan,0,1,,bot_check,[],32,Yes,No,Thanks!,3,2,Female,English,Chrome,Windows,1036,1842,2.3014666666666668,
1116,list4,blue,box_wood_blue,color_correct,practice_1,,yes,color,box_wood_brown,2,,"[3779, 'yes']",,practice_trial,box_cardboard_blue,,[],32,Yes,No,Thanks!,3,2,Female,English,Chrome,Windows,1036,1842,2.3014666666666668,
1116,list4,plastic,ball_metal_red,material_incorrect,practice_2,,no,material,ball_plastic_red,4,,"[3578, 'yes']",,practice_trial,ball_metal_green,,[],32,Yes,No,Thanks!,3,2,Female,English,Chrome,Windows,1036,1842,2.3014666666666668,
1116,list4,metal,bowl_glass_blue,material_correct,practice_3,,yes,material,bowl_metal_blue,2,,"[2208, 'yes']",,practice_trial,bowl_glass_green,,[],32,Yes,No,Thanks!,3,2,Female,English,Chrome,Windows,1036,1842,2.3014666666666668,
1116,list4,blue,vase_glass_green,color_incorrect,practice_4,,no,color,vase_glass_blue,3,,"[3711, 'no']",,practice_trial,vase_wood_green,,[],32,Yes,No,Thanks!,3,2,Female,English,Chrome,Windows,1036,1842,2.3014666666666668,
1116,list4,green,bag_plastic_blue,color_incorrect,practice_5,,no,color,bag_plastic_green,4,,"[2673, 'no']",,practice_trial,bag_paper_blue,,[],32,Yes,No,Thanks!,3,2,Female,English,Chrome,Windows,1036,1842,2.3014666666666668,
1116,list4,wooden,door_steel_yellow,material_correct,practice_6,,yes,material,door_steel_red,1,,"[3087, 'yes']",,practice_trial,door_wood_yellow,,[],32,Yes,No,Thanks!,3,2,Female,English,Chrome,Windows,1036,1842,2.3014666666666668,
1116,list4,paper,plate_plastic_blue_original,material1_correct,ppb_ppbo_ppg,ppb_ppbo_ppg_2,yes,material,plate_plastic_green,1,,"[3441, 'yes']",,11,plate_paper_blue,,[],32,Yes,No,Thanks!,3,2,Female,English,Chrome,Windows,1036,1842,2.3014666666666668,
1116,list4,blue,pitcher_glass_blue,color1_correct,pmb_pgb_pgco,pmb_pgb_pgco_2,yes,color,pitcher_glass_clear_original,2,,"[2814, 'yes']",,12,pitcher_metal_blue,,[],32,Yes,No,Thanks!,3,2,Female,English,Chrome,Windows,1036,1842,2.3014666666666668,
1116,list4,green,bottle_plastic_green,color1_correct,bgg_bpg_bpb,bgg_bpg_bpb_1,yes,color,bottle_plastic_blue,2,,"[1950, 'yes']",,13,bottle_glass_green,,[],32,Yes,No,Thanks!,3,2,Female,English,Chrome,Windows,1036,1842,2.3014666666666668,
1116,list4,purple,chair_metal_green,color1_correct,cmp_cmg_cwg,cmp_cmg_cwg_2,yes,color,chair_wood_green,1,,"[1776, 'yes']",,14,chair_metal_purple,,[],32,Yes,No,Thanks!,3,2,Female,English,Chrome,Windows,1036,1842,2.3014666666666668,
1116,list4,wood,table_metal_blue,material2_correct,tmso_tmb_twb,tmso_tmb_twb_2,yes,material,table_wood_blue,2,,"[3967, 'yes']",,15,table_metal_silver_original,,[],32,Yes,No,Thanks!,3,2,Female,English,Chrome,Windows,1036,1842,2.3014666666666668,
1116,list4,metal,table_metal_green,material1_correct,tmb_tmg_twg,tmb_tmg_twg_2,yes,material,table_wood_green,2,,"[2864, 'yes']",,16,table_metal_blue,,[],32,Yes,No,Thanks!,3,2,Female,English,Chrome,Windows,1036,1842,2.3014666666666668,
1116,list4,blue,spoon_wood_blue,color2_incorrect,swg_swb_spb,swg_swb_spb_1,no,color,spoon_plastic_blue,"['4', '5']",,"[2479, 'no']",,17,spoon_wood_green,,[],32,Yes,No,Thanks!,3,2,Female,English,Chrome,Windows,1036,1842,2.3014666666666668,
1116,list4,plastic,cup_metal_green,material1_correct,cpg_cmg_cmb,cpg_cmg_cmb_1,yes,material,cup_metal_blue,1,,"[2829, 'yes']",,18,cup_plastic_green,,[],32,Yes,No,Thanks!,3,2,Female,English,Chrome,Windows,1036,1842,2.3014666666666668,
1116,list4,green,pitcher_plastic_blue,color2_correct,pmb_ppb_ppg,pmb_ppb_ppg_1,yes,color,pitcher_plastic_green,2,,"[2703, 'yes']",,19,pitcher_metal_blue,,[],32,Yes,No,Thanks!,3,2,Female,English,Chrome,Windows,1036,1842,2.3014666666666668,
1116,list4,paper,plate_plastic_blue_original,material1_incorrect,ppb_ppbo_ppp,ppb_ppbo_ppp_1,no,material,plate_plastic_pink,"['2', '3']",,"[3152, 'no']",,20,plate_paper_blue,,[],32,Yes,No,Thanks!,3,2,Female,English,Chrome,Windows,1036,1842,2.3014666666666668,
1116,list4,metal,table_metal_blue,material1_incorrect,tmg_tmb_twb,tmg_tmb_twb_1,no,material,table_wood_blue,"['3', '4']",,"[2528, 'no']",,21,table_metal_green,,[],32,Yes,No,Thanks!,3,2,Female,English,Chrome,Windows,1036,1842,2.3014666666666668,
1116,list4,blue,table_wood_blue,color1_incorrect,tmb_twb_twg,tmb_twb_twg_1,no,color,table_wood_green,"['3', '4']",,"[2559, 'no']",,22,table_metal_blue,,[],32,Yes,No,Thanks!,3,2,Female,English,Chrome,Windows,1036,1842,2.3014666666666668,
1116,list4,plastic,chair_metal_green,material2_incorrect,cmp_cmg_cpg,cmp_cmg_cpg_1,no,material,chair_plastic_green,"['3', '4']",,"[3217, 'no']",,23,chair_metal_purple,,[],32,Yes,No,Thanks!,3,2,Female,English,Chrome,Windows,1036,1842,2.3014666666666668,
1116,list4,leather,boot_leather_brown,material1_correct,blg_blb_brb,blg_blb_brb_2,yes,material,boot_rubber_brown,2,,"[2975, 'yes']",,24,boot_leather_green,,[],32,Yes,No,Thanks!,3,2,Female,English,Chrome,Windows,1036,1842,2.3014666666666668,
1116,list4,blue,table_wood_blue,color1_correct,tmb_twb_twbo,tmb_twb_twbo_2,yes,color,table_wood_brown_original,2,,"[2464, 'yes']",,25,table_metal_blue,,[],32,Yes,No,Thanks!,3,2,Female,English,Chrome,Windows,1036,1842,2.3014666666666668,
1116,list4,blue,pitcher_glass_blue,color1_incorrect,pmb_pgb_pgg,pmb_pgb_pgg_2,no,color,pitcher_glass_green,"['3', '4']",,"[2015, 'no']",,26,pitcher_metal_blue,,[],32,Yes,No,Thanks!,3,2,Female,English,Chrome,Windows,1036,1842,2.3014666666666668,
1116,list4,wood,chair_metal_purple,material2_correct,cmg_cmp_cwp,cmg_cmp_cwp_1,yes,material,chair_wood_purple,2,,"[2127, 'yes']",,27,chair_metal_green,,[],32,Yes,No,Thanks!,3,2,Female,English,Chrome,Windows,1036,1842,2.3014666666666668,
1116,list4,plastic,cup_metal_green,material1_incorrect,cpg_cmg_cmso,cpg_cmg_cmso_2,no,material,cup_metal_silver_original,"['2', '3']",,"[2657, 'no']",,28,cup_plastic_green,,[],32,Yes,No,Thanks!,3,2,Female,English,Chrome,Windows,1036,1842,2.3014666666666668,
1116,list4,leather,jacket_leather_purple,material2_incorrect,jdp_jlp_jlg,jdp_jlp_jlg_2,no,material,jacket_leather_green,"['4', '5']",,"[2320, 'no']",,29,jacket_denim_purple,,[],32,Yes,No,Thanks!,3,2,Female,English,Chrome,Windows,1036,1842,2.3014666666666668,
1116,list4,clear,bottle_glass_green,color2_incorrect,bpg_bgg_bgco,bpg_bgg_bgco_2,no,color,bottle_glass_clear_original,"['3', '4']",,"[3581, 'yes']",,30,bottle_plastic_green,,[],32,Yes,No,Thanks!,3,2,Female,English,Chrome,Windows,1036,1842,2.3014666666666668,
1116,list4,paper,plate_paper_blue,material2_incorrect,ppbo_ppb_ppwo,ppbo_ppb_ppwo_2,no,material,plate_paper_white_original,"['4', '5']",,"[2495, 'no']",,31,plate_plastic_blue_original,,[],32,Yes,No,Thanks!,3,2,Female,English,Chrome,Windows,1036,1842,2.3014666666666668,
1116,list4,blue,bottle_glass_green,color2_correct,bpg_bgg_bgb,bpg_bgg_bgb_1,yes,color,bottle_glass_blue,2,,"[1903, 'yes']",,32,bottle_plastic_green,,[],32,Yes,No,Thanks!,3,2,Female,English,Chrome,Windows,1036,1842,2.3014666666666668,
1116,list4,blue,spoon_wood_blue,color2_correct,swg_swb_smb,swg_swb_smb_2,yes,color,spoon_metal_blue,3,,"[2641, 'yes']",,33,spoon_wood_green,,[],32,Yes,No,Thanks!,3,2,Female,English,Chrome,Windows,1036,1842,2.3014666666666668,
1116,list4,black,boot_leather_black_original,color2_incorrect,blg_blbo_brbo,blg_blbo_brbo_1,no,color,boot_rubber_black_original,"['4', '5']",,"[2604, 'no']",,34,boot_leather_green,,[],32,Yes,No,Thanks!,3,2,Female,English,Chrome,Windows,1036,1842,2.3014666666666668,
1116,list4,paper,plate_paper_blue,material2_correct,ppbo_ppb_ppg,ppbo_ppb_ppg_2,yes,material,plate_paper_green,3,,"[4416, 'yes']",,35,plate_plastic_blue_original,,[],32,Yes,No,Thanks!,3,2,Female,English,Chrome,Windows,1036,1842,2.3014666666666668,
1116,list4,blue,plate_paper_green,color1_incorrect,ppb_ppg_ppg,ppb_ppg_ppg_2,no,color,plate_plastic_green,"['2', '3']",,"[2463, 'no']",,36,plate_paper_blue,,[],32,Yes,No,Thanks!,3,2,Female,English,Chrome,Windows,1036,1842,2.3014666666666668,
1116,list4,green,bottle_plastic_green,color1_incorrect,bgg_bpg_bpco,bgg_bpg_bpco_2,no,color,bottle_plastic_clear_original,"['3', '4']",,"[1887, 'no']",,37,bottle_glass_green,,[],32,Yes,No,Thanks!,3,2,Female,English,Chrome,Windows,1036,1842,2.3014666666666668,
1116,list4,wood,table_metal_green,material2_incorrect,tmso_tmg_twg,tmso_tmg_twg_2,no,material,table_wood_green,"['3', '4']",,"[2512, 'no']",,38,table_metal_silver_original,,[],32,Yes,No,Thanks!,3,2,Female,English,Chrome,Windows,1036,1842,2.3014666666666668,
1116,list4,white,pitcher_plastic_blue,color2_incorrect,pmb_ppb_ppwo,pmb_ppb_ppwo_1,no,color,pitcher_plastic_white_original,"['3', '4']",,"[2159, 'no']",,39,pitcher_metal_blue,,[],32,Yes,No,Thanks!,3,2,Female,English,Chrome,Windows,1036,1842,2.3014666666666668,
1116,list4,leather,jacket_leather_purple,material2_correct,jdp_jlp_jlbo,jdp_jlp_jlbo_1,yes,material,jacket_leather_black_original,3,,"[2991, 'yes']",,40,jacket_denim_purple,,[],32,Yes,No,Thanks!,3,2,Female,English,Chrome,Windows,1036,1842,2.3014666666666668,
1116,list4,metal,chair_metal_purple,material1_incorrect,cmg_cmp_cpp,cmg_cmp_cpp_1,no,material,chair_plastic_purple,"['3', '4']",,"[4111, 'no']",,41,chair_metal_green,,[],32,Yes,No,Thanks!,3,2,Female,English,Chrome,Windows,1036,1842,2.3014666666666668,
1115,list5,,,,,,,,,,Patricia,Patricia,0,1,,bot_check,[],22,No,No,n/a,3,1,Female,English,Chrome,Mac,900,1440,3.7724333333333337,
1115,list5,blue,box_wood_blue,color_correct,practice_1,,yes,color,box_wood_brown,2,,"[13143, 'yes']",,practice_trial,box_cardboard_blue,,[],22,No,No,n/a,3,1,Female,English,Chrome,Mac,900,1440,3.7724333333333337,
1115,list5,plastic,ball_metal_red,material_incorrect,practice_2,,no,material,ball_plastic_red,4,,"[7060, 'no']",,practice_trial,ball_metal_green,,[],22,No,No,n/a,3,1,Female,English,Chrome,Mac,900,1440,3.7724333333333337,
1115,list5,metal,bowl_glass_blue,material_correct,practice_3,,yes,material,bowl_metal_blue,2,,"[4462, 'yes']",,practice_trial,bowl_glass_green,,[],22,No,No,n/a,3,1,Female,English,Chrome,Mac,900,1440,3.7724333333333337,
1115,list5,blue,vase_glass_green,color_incorrect,practice_4,,no,color,vase_glass_blue,3,,"[3610, 'no']",,practice_trial,vase_wood_green,,[],22,No,No,n/a,3,1,Female,English,Chrome,Mac,900,1440,3.7724333333333337,
1115,list5,green,bag_plastic_blue,color_incorrect,practice_5,,no,color,bag_plastic_green,4,,"[2616, 'no']",,practice_trial,bag_paper_blue,,[],22,No,No,n/a,3,1,Female,English,Chrome,Mac,900,1440,3.7724333333333337,
1115,list5,wooden,door_steel_yellow,material_correct,practice_6,,yes,material,door_steel_red,1,,"[3687, 'yes']",,practice_trial,door_wood_yellow,,[],22,No,No,n/a,3,1,Female,English,Chrome,Mac,900,1440,3.7724333333333337,
1115,list5,paper,plate_plastic_blue_original,material1_incorrect,ppb_ppbo_ppg,ppb_ppbo_ppg_2,no,material,plate_plastic_green,"['2', '3']",,"[7053, 'no']",,11,plate_paper_blue,,[],22,No,No,n/a,3,1,Female,English,Chrome,Mac,900,1440,3.7724333333333337,
1115,list5,green,bottle_plastic_green,color1_incorrect,bgg_bpg_bpb,bgg_bpg_bpb_1,no,color,bottle_plastic_blue,"['3', '4']",,"[5228, 'yes']",,12,bottle_glass_green,,[],22,No,No,n/a,3,1,Female,English,Chrome,Mac,900,1440,3.7724333333333337,
1115,list5,green,pitcher_plastic_blue,color2_incorrect,pmb_ppb_ppg,pmb_ppb_ppg_1,no,color,pitcher_plastic_green,"['3', '4']",,"[3425, 'yes']",,13,pitcher_metal_blue,,[],22,No,No,n/a,3,1,Female,English,Chrome,Mac,900,1440,3.7724333333333337,
1115,list5,green,table_wood_blue,color2_correct,tmb_twb_twg,tmb_twb_twg_2,yes,color,table_wood_green,2,,"[7129, 'yes']",,14,table_metal_blue,,[],22,No,No,n/a,3,1,Female,English,Chrome,Mac,900,1440,3.7724333333333337,
1115,list5,purple,jacket_leather_purple,color1_correct,jdp_jlp_jlg,jdp_jlp_jlg_2,yes,color,jacket_leather_green,2,,"[3176, 'yes']",,15,jacket_denim_purple,,[],22,No,No,n/a,3,1,Female,English,Chrome,Mac,900,1440,3.7724333333333337,
1115,list5,plastic,plate_plastic_blue_original,material2_correct,ppb_ppbo_ppp,ppb_ppbo_ppp_2,yes,material,plate_plastic_pink,3,,"[8185, 'yes']",,16,plate_paper_blue,,[],22,No,No,n/a,3,1,Female,English,Chrome,Mac,900,1440,3.7724333333333337,
1115,list5,leather,boot_leather_brown,material1_incorrect,blg_blb_brb,blg_blb_brb_1,no,material,boot_rubber_brown,"['3', '4']",,"[7408, 'no']",,17,boot_leather_green,,[],22,No,No,n/a,3,1,Female,English,Chrome,Mac,900,1440,3.7724333333333337,
1115,list5,plastic,cup_metal_green,material1_incorrect,cpg_cmg_cmb,cpg_cmg_cmb_1,no,material,cup_metal_blue,"['2', '3']",,"[5751, 'no']",,18,cup_plastic_green,,[],22,No,No,n/a,3,1,Female,English,Chrome,Mac,900,1440,3.7724333333333337,
1115,list5,leather,boot_leather_black_original,material1_correct,blg_blbo_brbo,blg_blbo_brbo_1,yes,material,boot_rubber_black_original,2,,"[5591, 'yes']",,19,boot_leather_green,,[],22,No,No,n/a,3,1,Female,English,Chrome,Mac,900,1440,3.7724333333333337,
1115,list5,blue,table_wood_blue,color1_incorrect,tmb_twb_twbo,tmb_twb_twbo_1,no,color,table_wood_brown_original,"['3', '4']",,"[2429, 'no']",,20,table_metal_blue,,[],22,No,No,n/a,3,1,Female,English,Chrome,Mac,900,1440,3.7724333333333337,
1115,list5,wood,spoon_wood_blue,material1_correct,swg_swb_spb,swg_swb_spb_1,yes,material,spoon_plastic_blue,2,,"[5644, 'yes']",,21,spoon_wood_green,,[],22,No,No,n/a,3,1,Female,English,Chrome,Mac,900,1440,3.7724333333333337,
1115,list5,metal,cup_metal_green,material2_correct,cpg_cmg_cmso,cpg_cmg_cmso_2,yes,material,cup_metal_silver_original,3,,"[2908, 'yes']",,22,cup_plastic_green,,[],22,No,No,n/a,3,1,Female,English,Chrome,Mac,900,1440,3.7724333333333337,
1115,list5,leather,jacket_leather_purple,material2_incorrect,jdp_jlp_jlbo,jdp_jlp_jlbo_1,no,material,jacket_leather_black_original,"['4', '5']",,"[3223, 'no']",,23,jacket_denim_purple,,[],22,No,No,n/a,3,1,Female,English,Chrome,Mac,900,1440,3.7724333333333337,
1115,list5,metal,pitcher_plastic_blue,material1_correct,pmb_ppb_ppwo,pmb_ppb_ppwo_1,yes,material,pitcher_plastic_white_original,1,,"[3075, 'yes']",,24,pitcher_metal_blue,,[],22,No,No,n/a,3,1,Female,English,Chrome,Mac,900,1440,3.7724333333333337,
1115,list5,wood,chair_metal_purple,material2_incorrect,cmg_cmp_cwp,cmg_cmp_cwp_1,no,material,chair_wood_purple,"['3', '4']",,"[2336, 'no']",,25,chair_metal_green,,[],22,No,No,n/a,3,1,Female,English,Chrome,Mac,900,1440,3.7724333333333337,
1115,list5,green,pitcher_glass_blue,color2_correct,pmb_pgb_pgg,pmb_pgb_pgg_2,yes,color,pitcher_glass_green,2,,"[2652, 'yes']",,26,pitcher_metal_blue,,[],22,No,No,n/a,3,1,Female,English,Chrome,Mac,900,1440,3.7724333333333337,
1115,list5,silver,table_metal_green,color1_correct,tmso_tmg_twg,tmso_tmg_twg_1,yes,color,table_wood_green,1,,"[2280, 'yes']",,27,table_metal_silver_original,,[],22,No,No,n/a,3,1,Female,English,Chrome,Mac,900,1440,3.7724333333333337,
1115,list5,purple,chair_metal_green,color1_incorrect,cmp_cmg_cwg,cmp_cmg_cwg_1,no,color,chair_wood_green,"['2', '3']",,"[2296, 'no']",,28,chair_metal_purple,,[],22,No,No,n/a,3,1,Female,English,Chrome,Mac,900,1440,3.7724333333333337,
1115,list5,clear,bottle_plastic_green,color2_correct,bgg_bpg_bpco,bgg_bpg_bpco_2,yes,color,bottle_plastic_clear_original,2,,"[2827, 'yes']",,29,bottle_glass_green,,[],22,No,No,n/a,3,1,Female,English,Chrome,Mac,900,1440,3.7724333333333337,
1115,list5,wood,table_metal_blue,material2_correct,tmg_tmb_twb,tmg_tmb_twb_2,yes,material,table_wood_blue,2,,"[3263, 'yes']",,30,table_metal_green,,[],22,No,No,n/a,3,1,Female,English,Chrome,Mac,900,1440,3.7724333333333337,
1115,list5,plastic,bottle_glass_green,material1_correct,bpg_bgg_bgco,bpg_bgg_bgco_1,yes,material,bottle_glass_clear_original,1,,"[3426, 'no']",,31,bottle_plastic_green,,[],22,No,No,n/a,3,1,Female,English,Chrome,Mac,900,1440,3.7724333333333337,
1115,list5,green,plate_paper_green,color2_correct,ppb_ppg_ppg,ppb_ppg_ppg_2,yes,color,plate_plastic_green,3,,"[2386, 'yes']",,32,plate_paper_blue,,[],22,No,No,n/a,3,1,Female,English,Chrome,Mac,900,1440,3.7724333333333337,
1115,list5,purple,chair_metal_green,color1_correct,cmp_cmg_cpg,cmp_cmg_cpg_2,yes,color,chair_plastic_green,1,,"[2448, 'yes']",,33,chair_metal_purple,,[],22,No,No,n/a,3,1,Female,English,Chrome,Mac,900,1440,3.7724333333333337,
1115,list5,blue,spoon_wood_blue,color2_incorrect,swg_swb_smb,swg_swb_smb_2,no,color,spoon_metal_blue,"['4', '5']",,"[2324, 'no']",,34,spoon_wood_green,,[],22,No,No,n/a,3,1,Female,English,Chrome,Mac,900,1440,3.7724333333333337,
1115,list5,paper,plate_paper_blue,material2_incorrect,ppbo_ppb_ppg,ppbo_ppb_ppg_1,no,material,plate_paper_green,"['4', '5']",,"[7309, 'no']",,35,plate_plastic_blue_original,,[],22,No,No,n/a,3,1,Female,English,Chrome,Mac,900,1440,3.7724333333333337,
1115,list5,blue,pitcher_glass_blue,color1_incorrect,pmb_pgb_pgco,pmb_pgb_pgco_2,no,color,pitcher_glass_clear_original,"['3', '4']",,"[4139, 'no']",,36,pitcher_metal_blue,,[],22,No,No,n/a,3,1,Female,English,Chrome,Mac,900,1440,3.7724333333333337,
1115,list5,wood,table_metal_blue,material2_incorrect,tmso_tmb_twb,tmso_tmb_twb_2,no,material,table_wood_blue,"['3', '4']",,"[2416, 'yes']",,37,table_metal_silver_original,,[],22,No,No,n/a,3,1,Female,English,Chrome,Mac,900,1440,3.7724333333333337,
1115,list5,metal,table_metal_green,material1_incorrect,tmb_tmg_twg,tmb_tmg_twg_2,no,material,table_wood_green,"['3', '4']",,"[5079, 'no']",,38,table_metal_blue,,[],22,No,No,n/a,3,1,Female,English,Chrome,Mac,900,1440,3.7724333333333337,
1115,list5,plastic,chair_metal_purple,material2_correct,cmg_cmp_cpp,cmg_cmp_cpp_2,yes,material,chair_plastic_purple,2,,"[2936, 'yes']",,39,chair_metal_green,,[],22,No,No,n/a,3,1,Female,English,Chrome,Mac,900,1440,3.7724333333333337,
1115,list5,blue,bottle_glass_green,color2_incorrect,bpg_bgg_bgb,bpg_bgg_bgb_1,no,color,bottle_glass_blue,"['3', '4']",,"[2589, 'no']",,40,bottle_plastic_green,,[],22,No,No,n/a,3,1,Female,English,Chrome,Mac,900,1440,3.7724333333333337,
1115,list5,blue,plate_paper_blue,color1_correct,ppbo_ppb_ppwo,ppbo_ppb_ppwo_2,yes,color,plate_paper_white_original,2,,"[1968, 'yes']",,41,plate_plastic_blue_original,,[],22,No,No,n/a,3,1,Female,English,Chrome,Mac,900,1440,3.7724333333333337,
1114,list7,,,,,,,,,,Linda,Linda,0,1,,bot_check,[],21,Yes,No,,2,1,Female,English,Chrome,Windows,768,1366,2.6606,
1114,list7,blue,box_wood_blue,color_correct,practice_1,,yes,color,box_wood_brown,2,,"[3244, 'yes']",,practice_trial,box_cardboard_blue,,[],21,Yes,No,,2,1,Female,English,Chrome,Windows,768,1366,2.6606,
1114,list7,plastic,ball_metal_red,material_incorrect,practice_2,,no,material,ball_plastic_red,4,,"[3471, 'yes']",,practice_trial,ball_metal_green,,[],21,Yes,No,,2,1,Female,English,Chrome,Windows,768,1366,2.6606,
1114,list7,metal,bowl_glass_blue,material_correct,practice_3,,yes,material,bowl_metal_blue,2,,"[2986, 'yes']",,practice_trial,bowl_glass_green,,[],21,Yes,No,,2,1,Female,English,Chrome,Windows,768,1366,2.6606,
1114,list7,blue,vase_glass_green,color_incorrect,practice_4,,no,color,vase_glass_blue,3,,"[2808, 'yes']",,practice_trial,vase_wood_green,,[],21,Yes,No,,2,1,Female,English,Chrome,Windows,768,1366,2.6606,
1114,list7,green,bag_plastic_blue,color_incorrect,practice_5,,no,color,bag_plastic_green,4,,"[2831, 'no']",,practice_trial,bag_paper_blue,,[],21,Yes,No,,2,1,Female,English,Chrome,Windows,768,1366,2.6606,
1114,list7,wooden,door_steel_yellow,material_correct,practice_6,,yes,material,door_steel_red,1,,"[4160, 'yes']",,practice_trial,door_wood_yellow,,[],21,Yes,No,,2,1,Female,English,Chrome,Windows,768,1366,2.6606,
1114,list7,green,chair_metal_green,color2_correct,cmp_cmg_cpg,cmp_cmg_cpg_1,yes,color,chair_plastic_green,3,,"[2668, 'yes']",,11,chair_metal_purple,,[],21,Yes,No,,2,1,Female,English,Chrome,Windows,768,1366,2.6606,
1114,list7,silver,table_metal_blue,color1_incorrect,tmso_tmb_twb,tmso_tmb_twb_2,no,color,table_wood_blue,"['2', '3']",,"[2450, 'no']",,12,table_metal_silver_original,,[],21,Yes,No,,2,1,Female,English,Chrome,Windows,768,1366,2.6606,
1114,list7,white,plate_paper_blue,color2_correct,ppbo_ppb_ppwo,ppbo_ppb_ppwo_1,yes,color,plate_paper_white_original,2,,"[2596, 'yes']",,13,plate_plastic_blue_original,,[],21,Yes,No,,2,1,Female,English,Chrome,Windows,768,1366,2.6606,
1114,list7,metal,pitcher_plastic_blue,material1_incorrect,pmb_ppb_ppg,pmb_ppb_ppg_2,no,material,pitcher_plastic_green,"['2', '3']",,"[2758, 'no']",,14,pitcher_metal_blue,,[],21,Yes,No,,2,1,Female,English,Chrome,Windows,768,1366,2.6606,
1114,list7,wood,table_metal_green,material2_incorrect,tmb_tmg_twg,tmb_tmg_twg_1,no,material,table_wood_green,"['3', '4']",,"[4842, 'no']",,15,table_metal_blue,,[],21,Yes,No,,2,1,Female,English,Chrome,Windows,768,1366,2.6606,
1114,list7,paper,plate_paper_green,material1_correct,ppb_ppg_ppg,ppb_ppg_ppg_1,yes,material,plate_plastic_green,2,,"[2497, 'yes']",,16,plate_paper_blue,,[],21,Yes,No,,2,1,Female,English,Chrome,Windows,768,1366,2.6606,
1114,list7,plastic,bottle_glass_green,material1_incorrect,bpg_bgg_bgb,bpg_bgg_bgb_2,no,material,bottle_glass_blue,"['2', '3']",,"[2322, 'no']",,17,bottle_plastic_green,,[],21,Yes,No,,2,1,Female,English,Chrome,Windows,768,1366,2.6606,
1114,list7,rubber,boot_leather_black_original,material2_correct,blg_blbo_brbo,blg_blbo_brbo_2,yes,material,boot_rubber_black_original,2,,"[2582, 'no']",,18,boot_leather_green,,[],21,Yes,No,,2,1,Female,English,Chrome,Windows,768,1366,2.6606,
1114,list7,rubber,boot_leather_brown,material2_incorrect,blg_blb_brb,blg_blb_brb_2,no,material,boot_rubber_brown,"['3', '4']",,"[2279, 'yes']",,19,boot_leather_green,,[],21,Yes,No,,2,1,Female,English,Chrome,Windows,768,1366,2.6606,
1114,list7,purple,jacket_leather_purple,color1_incorrect,jdp_jlp_jlbo,jdp_jlp_jlbo_2,no,color,jacket_leather_black_original,"['3', '4']",,"[2238, 'no']",,20,jacket_denim_purple,,[],21,Yes,No,,2,1,Female,English,Chrome,Windows,768,1366,2.6606,
1114,list7,clear,pitcher_glass_blue,color2_incorrect,pmb_pgb_pgco,pmb_pgb_pgco_2,no,color,pitcher_glass_clear_original,"['3', '4']",,"[3267, 'yes']",,21,pitcher_metal_blue,,[],21,Yes,No,,2,1,Female,English,Chrome,Windows,768,1366,2.6606,
1114,list7,green,table_metal_green,color2_correct,tmso_tmg_twg,tmso_tmg_twg_1,yes,color,table_wood_green,3,,"[2030, 'yes']",,22,table_metal_silver_original,,[],21,Yes,No,,2,1,Female,English,Chrome,Windows,768,1366,2.6606,
1114,list7,green,table_metal_blue,color1_correct,tmg_tmb_twb,tmg_tmb_twb_1,yes,color,table_wood_blue,1,,"[2508, 'yes']",,23,table_metal_green,,[],21,Yes,No,,2,1,Female,English,Chrome,Windows,768,1366,2.6606,
1114,list7,glass,bottle_glass_green,material2_correct,bpg_bgg_bgco,bpg_bgg_bgco_1,yes,material,bottle_glass_clear_original,3,,"[2963, 'yes']",,24,bottle_plastic_green,,[],21,Yes,No,,2,1,Female,English,Chrome,Windows,768,1366,2.6606,
1114,list7,metal,table_wood_blue,material1_correct,tmb_twb_twg,tmb_twb_twg_2,yes,material,table_wood_green,1,,"[2400, 'no']",,25,table_metal_blue,,[],21,Yes,No,,2,1,Female,English,Chrome,Windows,768,1366,2.6606,
1114,list7,wood,spoon_wood_blue,material1_incorrect,swg_swb_smb,swg_swb_smb_2,no,material,spoon_metal_blue,"['3', '4']",,"[3180, 'no']",,26,spoon_wood_green,,[],21,Yes,No,,2,1,Female,English,Chrome,Windows,768,1366,2.6606,
1114,list7,metal,pitcher_glass_blue,material1_correct,pmb_pgb_pgg,pmb_pgb_pgg_2,yes,material,pitcher_glass_green,1,,"[1743, 'yes']",,27,pitcher_metal_blue,,[],21,Yes,No,,2,1,Female,English,Chrome,Windows,768,1366,2.6606,
1114,list7,blue,plate_paper_blue,color1_incorrect,ppbo_ppb_ppg,ppbo_ppb_ppg_2,no,color,plate_paper_green,"['3', '4']",,"[4106, 'no']",,28,plate_plastic_blue_original,,[],21,Yes,No,,2,1,Female,English,Chrome,Windows,768,1366,2.6606,
1114,list7,green,jacket_leather_purple,color2_correct,jdp_jlp_jlg,jdp_jlp_jlg_1,yes,color,jacket_leather_green,2,,"[2730, 'yes']",,29,jacket_denim_purple,,[],21,Yes,No,,2,1,Female,English,Chrome,Windows,768,1366,2.6606,
1114,list7,blue,plate_plastic_blue_original,color1_correct,ppb_ppbo_ppp,ppb_ppbo_ppp_2,yes,color,plate_plastic_pink,2,,"[2094, 'yes']",,30,plate_paper_blue,,[],21,Yes,No,,2,1,Female,English,Chrome,Windows,768,1366,2.6606,
1114,list7,green,chair_metal_green,color2_incorrect,cmp_cmg_cwg,cmp_cmg_cwg_2,no,color,chair_wood_green,"['4', '5']",,"[2303, 'no']",,31,chair_metal_purple,,[],21,Yes,No,,2,1,Female,English,Chrome,Windows,768,1366,2.6606,
1114,list7,green,chair_metal_purple,color1_incorrect,cmg_cmp_cwp,cmg_cmp_cwp_2,no,color,chair_wood_purple,"['2', '3']",,"[2441, 'no']",,32,chair_metal_green,,[],21,Yes,No,,2,1,Female,English,Chrome,Windows,768,1366,2.6606,
1114,list7,blue,bottle_plastic_green,color2_incorrect,bgg_bpg_bpb,bgg_bpg_bpb_1,no,color,bottle_plastic_blue,"['3', '4']",,"[2190, 'no']",,33,bottle_glass_green,,[],21,Yes,No,,2,1,Female,English,Chrome,Windows,768,1366,2.6606,
1114,list7,metal,cup_metal_green,material2_incorrect,cpg_cmg_cmb,cpg_cmg_cmb_1,no,material,cup_metal_blue,"['4', '5']",,"[2418, 'yes']",,34,cup_plastic_green,,[],21,Yes,No,,2,1,Female,English,Chrome,Windows,768,1366,2.6606,
1114,list7,glass,bottle_plastic_green,material1_correct,bgg_bpg_bpco,bgg_bpg_bpco_2,yes,material,bottle_plastic_clear_original,1,,"[2718, 'yes']",,35,bottle_glass_green,,[],21,Yes,No,,2,1,Female,English,Chrome,Windows,768,1366,2.6606,
1114,list7,plastic,spoon_wood_blue,material2_correct,swg_swb_spb,swg_swb_spb_1,yes,material,spoon_plastic_blue,2,,"[3140, 'no']",,36,spoon_wood_green,,[],21,Yes,No,,2,1,Female,English,Chrome,Windows,768,1366,2.6606,
1114,list7,green,cup_metal_green,color1_correct,cpg_cmg_cmso,cpg_cmg_cmso_2,yes,color,cup_metal_silver_original,2,,"[2489, 'yes']",,37,cup_plastic_green,,[],21,Yes,No,,2,1,Female,English,Chrome,Windows,768,1366,2.6606,
1114,list7,plastic,pitcher_plastic_blue,material2_correct,pmb_ppb_ppwo,pmb_ppb_ppwo_2,yes,material,pitcher_plastic_white_original,3,,"[3059, 'yes']",,38,pitcher_metal_blue,,[],21,Yes,No,,2,1,Female,English,Chrome,Windows,768,1366,2.6606,
1114,list7,brown,table_wood_blue,color2_incorrect,tmb_twb_twbo,tmb_twb_twbo_2,no,color,table_wood_brown_original,"['3', '4']",,"[3375, 'no']",,39,table_metal_blue,,[],21,Yes,No,,2,1,Female,English,Chrome,Windows,768,1366,2.6606,
1114,list7,green,chair_metal_purple,color1_correct,cmg_cmp_cpp,cmg_cmp_cpp_1,yes,color,chair_plastic_purple,1,,"[2544, 'yes']",,40,chair_metal_green,,[],21,Yes,No,,2,1,Female,English,Chrome,Windows,768,1366,2.6606,
1114,list7,plastic,plate_plastic_blue_original,material2_incorrect,ppb_ppbo_ppg,ppb_ppbo_ppg_1,no,material,plate_plastic_green,"['4', '5']",,"[4283, 'no']",,41,plate_paper_blue,,[],21,Yes,No,,2,1,Female,English,Chrome,Windows,768,1366,2.6606,
1113,list8,,,,,,,,,,Susan,Susan,0,1,,bot_check,[],37,Yes,No,,2,1,Male,English,Firefox,Windows,1080,1920,2.4215166666666668,
1113,list8,blue,box_wood_blue,color_correct,practice_1,,yes,color,box_wood_brown,2,,"[3666, 'yes']",,practice_trial,box_cardboard_blue,,[],37,Yes,No,,2,1,Male,English,Firefox,Windows,1080,1920,2.4215166666666668,
1113,list8,plastic,ball_metal_red,material_incorrect,practice_2,,no,material,ball_plastic_red,4,,"[1421, 'yes']",,practice_trial,ball_metal_green,,[],37,Yes,No,,2,1,Male,English,Firefox,Windows,1080,1920,2.4215166666666668,
1113,list8,metal,bowl_glass_blue,material_correct,practice_3,,yes,material,bowl_metal_blue,2,,"[3264, 'yes']",,practice_trial,bowl_glass_green,,[],37,Yes,No,,2,1,Male,English,Firefox,Windows,1080,1920,2.4215166666666668,
1113,list8,blue,vase_glass_green,color_incorrect,practice_4,,no,color,vase_glass_blue,3,,"[2879, 'no']",,practice_trial,vase_wood_green,,[],37,Yes,No,,2,1,Male,English,Firefox,Windows,1080,1920,2.4215166666666668,
1113,list8,green,bag_plastic_blue,color_incorrect,practice_5,,no,color,bag_plastic_green,4,,"[2320, 'no']",,practice_trial,bag_paper_blue,,[],37,Yes,No,,2,1,Male,English,Firefox,Windows,1080,1920,2.4215166666666668,
1113,list8,wooden,door_steel_yellow,material_correct,practice_6,,yes,material,door_steel_red,1,,"[4467, 'yes']",,practice_trial,door_wood_yellow,,[],37,Yes,No,,2,1,Male,English,Firefox,Windows,1080,1920,2.4215166666666668,
1113,list8,green,table_metal_blue,color1_incorrect,tmg_tmb_twb,tmg_tmb_twb_1,no,color,table_wood_blue,"['2', '3']",,"[2425, 'no']",,11,table_metal_green,,[],37,Yes,No,,2,1,Male,English,Firefox,Windows,1080,1920,2.4215166666666668,
1113,list8,metal,table_wood_blue,material1_correct,tmb_twb_twbo,tmb_twb_twbo_1,yes,material,table_wood_brown_original,1,,"[3391, 'yes']",,12,table_metal_blue,,[],37,Yes,No,,2,1,Male,English,Firefox,Windows,1080,1920,2.4215166666666668,
1113,list8,metal,spoon_wood_blue,material2_correct,swg_swb_smb,swg_swb_smb_1,yes,material,spoon_metal_blue,2,,"[3159, 'yes']",,13,spoon_wood_green,,[],37,Yes,No,,2,1,Male,English,Firefox,Windows,1080,1920,2.4215166666666668,
1113,list8,green,chair_metal_purple,color1_incorrect,cmg_cmp_cpp,cmg_cmp_cpp_1,no,color,chair_plastic_purple,"['2', '3']",,"[1774, 'no']",,14,chair_metal_green,,[],37,Yes,No,,2,1,Male,English,Firefox,Windows,1080,1920,2.4215166666666668,
1113,list8,paper,plate_paper_green,material1_incorrect,ppb_ppg_ppg,ppb_ppg_ppg_2,no,material,plate_plastic_green,"['3', '4']",,"[5575, 'no']",,15,plate_paper_blue,,[],37,Yes,No,,2,1,Male,English,Firefox,Windows,1080,1920,2.4215166666666668,
1113,list8,plastic,pitcher_plastic_blue,material2_incorrect,pmb_ppb_ppwo,pmb_ppb_ppwo_1,no,material,pitcher_plastic_white_original,"['4', '5']",,"[2393, 'no']",,16,pitcher_metal_blue,,[],37,Yes,No,,2,1,Male,English,Firefox,Windows,1080,1920,2.4215166666666668,
1113,list8,black,jacket_leather_purple,color2_correct,jdp_jlp_jlbo,jdp_jlp_jlbo_2,yes,color,jacket_leather_black_original,2,,"[2326, 'yes']",,17,jacket_denim_purple,,[],37,Yes,No,,2,1,Male,English,Firefox,Windows,1080,1920,2.4215166666666668,
1113,list8,green,boot_leather_brown,color1_correct,blg_blb_brb,blg_blb_brb_1,yes,color,boot_rubber_brown,1,,"[1584, 'yes']",,18,boot_leather_green,,[],37,Yes,No,,2,1,Male,English,Firefox,Windows,1080,1920,2.4215166666666668,
1113,list8,glass,bottle_glass_green,material2_correct,bpg_bgg_bgb,bpg_bgg_bgb_1,yes,material,bottle_glass_blue,3,,"[2953, 'yes']",,19,bottle_plastic_green,,[],37,Yes,No,,2,1,Male,English,Firefox,Windows,1080,1920,2.4215166666666668,
1113,list8,green,jacket_leather_purple,color2_incorrect,jdp_jlp_jlg,jdp_jlp_jlg_1,no,color,jacket_leather_green,"['3', '4']",,"[3647, 'no']",,20,jacket_denim_purple,,[],37,Yes,No,,2,1,Male,English,Firefox,Windows,1080,1920,2.4215166666666668,
1113,list8,metal,table_wood_blue,material1_incorrect,tmb_twb_twg,tmb_twb_twg_2,no,material,table_wood_green,"['2', '3']",,"[4520, 'yes']",,21,table_metal_blue,,[],37,Yes,No,,2,1,Male,English,Firefox,Windows,1080,1920,2.4215166666666668,
1113,list8,blue,plate_plastic_blue_original,color1_correct,ppb_ppbo_ppg,ppb_ppbo_ppg_2,yes,color,plate_plastic_green,2,,"[2119, 'yes']",,22,plate_paper_blue,,[],37,Yes,No,,2,1,Male,English,Firefox,Windows,1080,1920,2.4215166666666668,
1113,list8,green,chair_metal_green,color2_incorrect,cmp_cmg_cpg,cmp_cmg_cpg_1,no,color,chair_plastic_green,"['4', '5']",,"[1464, 'no']",,23,chair_metal_purple,,[],37,Yes,No,,2,1,Male,English,Firefox,Windows,1080,1920,2.4215166666666668,
1113,list8,green,plate_paper_blue,color2_correct,ppbo_ppb_ppg,ppbo_ppb_ppg_1,yes,color,plate_paper_green,2,,"[2624, 'no']",,24,plate_plastic_blue_original,,[],37,Yes,No,,2,1,Male,English,Firefox,Windows,1080,1920,2.4215166666666668,
1113,list8,blue,table_metal_green,color1_correct,tmb_tmg_twg,tmb_tmg_twg_2,yes,color,table_wood_green,1,,"[2144, 'yes']",,25,table_metal_blue,,[],37,Yes,No,,2,1,Male,English,Firefox,Windows,1080,1920,2.4215166666666668,
1113,list8,metal,pitcher_glass_blue,material1_correct,pmb_pgb_pgco,pmb_pgb_pgco_1,yes,material,pitcher_glass_clear_original,1,,"[3216, 'yes']",,26,pitcher_metal_blue,,[],37,Yes,No,,2,1,Male,English,Firefox,Windows,1080,1920,2.4215166666666668,
1113,list8,white,plate_paper_blue,color2_incorrect,ppbo_ppb_ppwo,ppbo_ppb_ppwo_2,no,color,plate_paper_white_original,"['3', '4']",,"[2063, 'no']",,27,plate_plastic_blue_original,,[],37,Yes,No,,2,1,Male,English,Firefox,Windows,1080,1920,2.4215166666666668,
1113,list8,glass,bottle_plastic_green,material1_incorrect,bgg_bpg_bpco,bgg_bpg_bpco_2,no,material,bottle_plastic_clear_original,"['2', '3']",,"[1960, 'no']",,28,bottle_glass_green,,[],37,Yes,No,,2,1,Male,English,Firefox,Windows,1080,1920,2.4215166666666668,
1113,list8,metal,chair_metal_green,material1_correct,cmp_cmg_cwg,cmp_cmg_cwg_2,yes,material,chair_wood_green,2,,"[2929, 'yes']",,29,chair_metal_purple,,[],37,Yes,No,,2,1,Male,English,Firefox,Windows,1080,1920,2.4215166666666668,
1113,list8,glass,bottle_glass_green,material2_incorrect,bpg_bgg_bgco,bpg_bgg_bgco_2,no,material,bottle_glass_clear_original,"['4', '5']",,"[2415, 'no']",,30,bottle_plastic_green,,[],37,Yes,No,,2,1,Male,English,Firefox,Windows,1080,1920,2.4215166666666668,
1113,list8,glass,bottle_plastic_green,material1_correct,bgg_bpg_bpb,bgg_bpg_bpb_1,yes,material,bottle_plastic_blue,1,,"[3271, 'yes']",,31,bottle_glass_green,,[],37,Yes,No,,2,1,Male,English,Firefox,Windows,1080,1920,2.4215166666666668,
1113,list8,purple,chair_metal_purple,color2_correct,cmg_cmp_cwp,cmg_cmp_cwp_2,yes,color,chair_wood_purple,3,,"[4097, 'yes']",,32,chair_metal_green,,[],37,Yes,No,,2,1,Male,English,Firefox,Windows,1080,1920,2.4215166666666668,
1113,list8,rubber,boot_leather_black_original,material2_incorrect,blg_blbo_brbo,blg_blbo_brbo_1,no,material,boot_rubber_black_original,"['3', '4']",,"[3687, 'no']",,33,boot_leather_green,,[],37,Yes,No,,2,1,Male,English,Firefox,Windows,1080,1920,2.4215166666666668,
1113,list8,plastic,spoon_wood_blue,material2_incorrect,swg_swb_spb,swg_swb_spb_1,no,material,spoon_plastic_blue,"['3', '4']",,"[5121, 'no']",,34,spoon_wood_green,,[],37,Yes,No,,2,1,Male,English,Firefox,Windows,1080,1920,2.4215166666666668,
1113,list8,green,cup_metal_green,color1_correct,cpg_cmg_cmb,cpg_cmg_cmb_1,yes,color,cup_metal_blue,2,,"[2030, 'yes']",,35,cup_plastic_green,,[],37,Yes,No,,2,1,Male,English,Firefox,Windows,1080,1920,2.4215166666666668,
1113,list8,green,table_metal_green,color2_incorrect,tmso_tmg_twg,tmso_tmg_twg_2,no,color,table_wood_green,"['4', '5']",,"[2224, 'no']",,36,table_metal_silver_original,,[],37,Yes,No,,2,1,Male,English,Firefox,Windows,1080,1920,2.4215166666666668,
1113,list8,blue,table_metal_blue,color2_correct,tmso_tmb_twb,tmso_tmb_twb_1,yes,color,table_wood_blue,3,,"[1624, 'yes']",,37,table_metal_silver_original,,[],37,Yes,No,,2,1,Male,English,Firefox,Windows,1080,1920,2.4215166666666668,
1113,list8,green,cup_metal_green,color1_incorrect,cpg_cmg_cmso,cpg_cmg_cmso_1,no,color,cup_metal_silver_original,"['3', '4']",,"[2561, 'no']",,38,cup_plastic_green,,[],37,Yes,No,,2,1,Male,English,Firefox,Windows,1080,1920,2.4215166666666668,
1113,list8,metal,pitcher_glass_blue,material1_incorrect,pmb_pgb_pgg,pmb_pgb_pgg_2,no,material,pitcher_glass_green,"['2', '3']",,"[3039, 'no']",,39,pitcher_metal_blue,,[],37,Yes,No,,2,1,Male,English,Firefox,Windows,1080,1920,2.4215166666666668,
1113,list8,plastic,pitcher_plastic_blue,material2_correct,pmb_ppb_ppg,pmb_ppb_ppg_2,yes,material,pitcher_plastic_green,3,,"[2847, 'yes']",,40,pitcher_metal_blue,,[],37,Yes,No,,2,1,Male,English,Firefox,Windows,1080,1920,2.4215166666666668,
1113,list8,blue,plate_plastic_blue_original,color1_incorrect,ppb_ppbo_ppp,ppb_ppbo_ppp_1,no,color,plate_plastic_pink,"['3', '4']",,"[2136, 'no']",,41,plate_paper_blue,,[],37,Yes,No,,2,1,Male,English,Firefox,Windows,1080,1920,2.4215166666666668,
1112,list1,,,,,,,,,,Elizabeth,Elizabeth,0,1,,bot_check,[],20,,No,,2,-1,Male,English,Chrome,Windows,1080,1920,3.553916666666667,
1112,list1,blue,box_wood_blue,color_correct,practice_1,,yes,color,box_wood_brown,2,,"[3149, 'yes']",,practice_trial,box_cardboard_blue,,[],20,,No,,2,-1,Male,English,Chrome,Windows,1080,1920,3.553916666666667,
1112,list1,plastic,ball_metal_red,material_incorrect,practice_2,,no,material,ball_plastic_red,4,,"[5683, 'no']",,practice_trial,ball_metal_green,,[],20,,No,,2,-1,Male,English,Chrome,Windows,1080,1920,3.553916666666667,
1112,list1,metal,bowl_glass_blue,material_correct,practice_3,,yes,material,bowl_metal_blue,2,,"[4263, 'yes']",,practice_trial,bowl_glass_green,,[],20,,No,,2,-1,Male,English,Chrome,Windows,1080,1920,3.553916666666667,
1112,list1,blue,vase_glass_green,color_incorrect,practice_4,,no,color,vase_glass_blue,3,,"[3167, 'no']",,practice_trial,vase_wood_green,,[],20,,No,,2,-1,Male,English,Chrome,Windows,1080,1920,3.553916666666667,
1112,list1,green,bag_plastic_blue,color_incorrect,practice_5,,no,color,bag_plastic_green,4,,"[2374, 'no']",,practice_trial,bag_paper_blue,,[],20,,No,,2,-1,Male,English,Chrome,Windows,1080,1920,3.553916666666667,
1112,list1,wooden,door_steel_yellow,material_correct,practice_6,,yes,material,door_steel_red,1,,"[2988, 'yes']",,practice_trial,door_wood_yellow,,[],20,,No,,2,-1,Male,English,Chrome,Windows,1080,1920,3.553916666666667,
1112,list1,pink,plate_plastic_blue_original,color2_correct,ppb_ppbo_ppp,ppb_ppbo_ppp_2,yes,color,plate_plastic_pink,2,,"[3410, 'no']",,11,plate_paper_blue,,[],20,,No,,2,-1,Male,English,Chrome,Windows,1080,1920,3.553916666666667,
1112,list1,green,cup_metal_green,color1_incorrect,cpg_cmg_cmb,cpg_cmg_cmb_1,no,color,cup_metal_blue,"['3', '4']",,"[1926, 'no']",,12,cup_plastic_green,,[],20,,No,,2,-1,Male,English,Chrome,Windows,1080,1920,3.553916666666667,
1112,list1,metal,pitcher_glass_blue,material1_incorrect,pmb_pgb_pgco,pmb_pgb_pgco_1,no,material,pitcher_glass_clear_original,"['2', '3']",,"[3961, 'no']",,13,pitcher_metal_blue,,[],20,,No,,2,-1,Male,English,Chrome,Windows,1080,1920,3.553916666666667,
1112,list1,blue,table_metal_blue,color2_correct,tmg_tmb_twb,tmg_tmb_twb_1,yes,color,table_wood_blue,3,,"[2929, 'yes']",,14,table_metal_green,,[],20,,No,,2,-1,Male,English,Chrome,Windows,1080,1920,3.553916666666667,
1112,list1,green,bottle_glass_green,color1_correct,bpg_bgg_bgco,bpg_bgg_bgco_2,yes,color,bottle_glass_clear_original,2,,"[2091, 'yes']",,15,bottle_plastic_green,,[],20,,No,,2,-1,Male,English,Chrome,Windows,1080,1920,3.553916666666667,
1112,list1,black,jacket_leather_purple,color2_incorrect,jdp_jlp_jlbo,jdp_jlp_jlbo_2,no,color,jacket_leather_black_original,"['3', '4']",,"[2672, 'no']",,16,jacket_denim_purple,,[],20,,No,,2,-1,Male,English,Chrome,Windows,1080,1920,3.553916666666667,
1112,list1,green,spoon_wood_blue,color1_correct,swg_swb_spb,swg_swb_spb_1,yes,color,spoon_plastic_blue,1,,"[1915, 'yes']",,17,spoon_wood_green,,[],20,,No,,2,-1,Male,English,Chrome,Windows,1080,1920,3.553916666666667,
1112,list1,silver,cup_metal_green,color2_correct,cpg_cmg_cmso,cpg_cmg_cmso_1,yes,color,cup_metal_silver_original,2,,"[2479, 'yes']",,18,cup_plastic_green,,[],20,,No,,2,-1,Male,English,Chrome,Windows,1080,1920,3.553916666666667,
1112,list1,blue,table_metal_green,color1_incorrect,tmb_tmg_twg,tmb_tmg_twg_1,no,color,table_wood_green,"['2', '3']",,"[1889, 'no']",,19,table_metal_blue,,[],20,,No,,2,-1,Male,English,Chrome,Windows,1080,1920,3.553916666666667,
1112,list1,metal,table_metal_green,material1_correct,tmso_tmg_twg,tmso_tmg_twg_2,yes,material,table_wood_green,2,,"[2149, 'yes']",,20,table_metal_silver_original,,[],20,,No,,2,-1,Male,English,Chrome,Windows,1080,1920,3.553916666666667,
1112,list1,plastic,pitcher_plastic_blue,material2_incorrect,pmb_ppb_ppg,pmb_ppb_ppg_2,no,material,pitcher_plastic_green,"['4', '5']",,"[2357, 'no']",,21,pitcher_metal_blue,,[],20,,No,,2,-1,Male,English,Chrome,Windows,1080,1920,3.553916666666667,
1112,list1,plastic,plate_paper_blue,material1_correct,ppbo_ppb_ppwo,ppbo_ppb_ppwo_1,yes,material,plate_paper_white_original,1,,"[2879, 'no']",,22,plate_plastic_blue_original,,[],20,,No,,2,-1,Male,English,Chrome,Windows,1080,1920,3.553916666666667,
1112,list1,purple,chair_metal_purple,color2_correct,cmg_cmp_cpp,cmg_cmp_cpp_2,yes,color,chair_plastic_purple,3,,"[1887, 'yes']",,23,chair_metal_green,,[],20,,No,,2,-1,Male,English,Chrome,Windows,1080,1920,3.553916666666667,
1112,list1,metal,spoon_wood_blue,material2_incorrect,swg_swb_smb,swg_swb_smb_2,no,material,spoon_metal_blue,"['3', '4']",,"[2465, 'no']",,24,spoon_wood_green,,[],20,,No,,2,-1,Male,English,Chrome,Windows,1080,1920,3.553916666666667,
1112,list1,green,boot_leather_brown,color1_incorrect,blg_blb_brb,blg_blb_brb_1,no,color,boot_rubber_brown,"['2', '3']",,"[1675, 'no']",,25,boot_leather_green,,[],20,,No,,2,-1,Male,English,Chrome,Windows,1080,1920,3.553916666666667,
1112,list1,metal,chair_metal_green,material1_correct,cmp_cmg_cpg,cmp_cmg_cpg_2,yes,material,chair_plastic_green,2,,"[2380, 'yes']",,26,chair_metal_purple,,[],20,,No,,2,-1,Male,English,Chrome,Windows,1080,1920,3.553916666666667,
1112,list1,metal,chair_metal_green,material1_incorrect,cmp_cmg_cwg,cmp_cmg_cwg_1,no,material,chair_wood_green,"['3', '4']",,"[2645, 'no']",,27,chair_metal_purple,,[],20,,No,,2,-1,Male,English,Chrome,Windows,1080,1920,3.553916666666667,
1112,list1,green,plate_paper_blue,color2_incorrect,ppbo_ppb_ppg,ppbo_ppb_ppg_1,no,color,plate_paper_green,"['3', '4']",,"[1970, 'no']",,28,plate_plastic_blue_original,,[],20,,No,,2,-1,Male,English,Chrome,Windows,1080,1920,3.553916666666667,
1112,list1,wooden,table_wood_blue,material2_correct,tmb_twb_twg,tmb_twb_twg_2,yes,material,table_wood_green,3,,"[2282, 'yes']",,29,table_metal_blue,,[],20,,No,,2,-1,Male,English,Chrome,Windows,1080,1920,3.553916666666667,
1112,list1,blue,table_metal_blue,color2_incorrect,tmso_tmb_twb,tmso_tmb_twb_2,no,color,table_wood_blue,"['4', '5']",,"[2339, 'no']",,30,table_metal_silver_original,,[],20,,No,,2,-1,Male,English,Chrome,Windows,1080,1920,3.553916666666667,
1112,list1,purple,chair_metal_purple,color2_incorrect,cmg_cmp_cwp,cmg_cmp_cwp_1,no,color,chair_wood_purple,"['4', '5']",,"[1659, 'no']",,31,chair_metal_green,,[],20,,No,,2,-1,Male,English,Chrome,Windows,1080,1920,3.553916666666667,
1112,list1,green,boot_leather_black_original,color1_correct,blg_blbo_brbo,blg_blbo_brbo_2,yes,color,boot_rubber_black_original,1,,"[1619, 'yes']",,32,boot_leather_green,,[],20,,No,,2,-1,Male,English,Chrome,Windows,1080,1920,3.553916666666667,
1112,list1,metal,table_wood_blue,material1_incorrect,tmb_twb_twbo,tmb_twb_twbo_1,no,material,table_wood_brown_original,"['2', '3']",,"[2099, 'no']",,33,table_metal_blue,,[],20,,No,,2,-1,Male,English,Chrome,Windows,1080,1920,3.553916666666667,
1112,list1,blue,pitcher_plastic_blue,color1_correct,pmb_ppb_ppwo,pmb_ppb_ppwo_2,yes,color,pitcher_plastic_white_original,2,,"[2213, 'yes']",,34,pitcher_metal_blue,,[],20,,No,,2,-1,Male,English,Chrome,Windows,1080,1920,3.553916666666667,
1112,list1,plastic,plate_paper_green,material2_correct,ppb_ppg_ppg,ppb_ppg_ppg_2,yes,material,plate_plastic_green,2,,"[3228, 'yes']",,35,plate_paper_blue,,[],20,,No,,2,-1,Male,English,Chrome,Windows,1080,1920,3.553916666666667,
1112,list1,blue,plate_plastic_blue_original,color1_incorrect,ppb_ppbo_ppg,ppb_ppbo_ppg_1,no,color,plate_plastic_green,"['3', '4']",,"[1718, 'no']",,36,plate_paper_blue,,[],20,,No,,2,-1,Male,English,Chrome,Windows,1080,1920,3.553916666666667,
1112,list1,glass,bottle_plastic_green,material1_incorrect,bgg_bpg_bpb,bgg_bpg_bpb_1,no,material,bottle_plastic_blue,"['2', '3']",,"[5887, 'no']",,37,bottle_glass_green,,[],20,,No,,2,-1,Male,English,Chrome,Windows,1080,1920,3.553916666666667,
1112,list1,denim,jacket_leather_purple,material1_correct,jdp_jlp_jlg,jdp_jlp_jlg_2,yes,material,jacket_leather_green,1,,"[3335, 'yes']",,38,jacket_denim_purple,,[],20,,No,,2,-1,Male,English,Chrome,Windows,1080,1920,3.553916666666667,
1112,list1,glass,pitcher_glass_blue,material2_correct,pmb_pgb_pgg,pmb_pgb_pgg_1,yes,material,pitcher_glass_green,3,,"[2435, 'yes']",,39,pitcher_metal_blue,,[],20,,No,,2,-1,Male,English,Chrome,Windows,1080,1920,3.553916666666667,
1112,list1,plastic,bottle_plastic_green,material2_correct,bgg_bpg_bpco,bgg_bpg_bpco_1,yes,material,bottle_plastic_clear_original,3,,"[2725, 'yes']",,40,bottle_glass_green,,[],20,,No,,2,-1,Male,English,Chrome,Windows,1080,1920,3.553916666666667,
1112,list1,glass,bottle_glass_green,material2_incorrect,bpg_bgg_bgb,bpg_bgg_bgb_1,no,material,bottle_glass_blue,"['4', '5']",,"[1752, 'no']",,41,bottle_plastic_green,,[],20,,No,,2,-1,Male,English,Chrome,Windows,1080,1920,3.553916666666667,
