workerid,proliferate.condition,adjQuestion,competitorName,condition,contextID,contextVar,correctAnsQuestion,featureQuestion,notCompetitorName,numQuestion,object,response,rt,slide_number_in_experiment,targetName,utterance,catch_trials,subject_information.age,subject_information.asses,subject_information.color,subject_information.comments,subject_information.education,subject_information.enjoyment,subject_information.gender,subject_information.language,system.Browser,system.OS,system.screenH,system.screenW,time_in_minutes,error
1704,list3,,,,,,,,,,Elizabeth,Elizabeth,0,1,,bot_check,[],39,No,Yes,,4,1,Male,ENglish,Chrome,Mac,900,1440,3.3895666666666666,
1704,list3,blue,box_wood_blue,color_correct,practice_1,,yes,color,box_wood_brown,2,,"[14093, 'no']",,practice_trial,box_cardboard_blue,,[],39,No,Yes,,4,1,Male,ENglish,Chrome,Mac,900,1440,3.3895666666666666,
1704,list3,plastic,ball_metal_red,material_incorrect,practice_2,,no,material,ball_plastic_red,4,,"[8732, 'no']",,practice_trial,ball_metal_green,,[],39,No,Yes,,4,1,Male,ENglish,Chrome,Mac,900,1440,3.3895666666666666,
1704,list3,metal,bowl_glass_blue,material_correct,practice_3,,yes,material,bowl_metal_blue,2,,"[3457, 'no']",,practice_trial,bowl_glass_green,,[],39,No,Yes,,4,1,Male,ENglish,Chrome,Mac,900,1440,3.3895666666666666,
1704,list3,blue,vase_glass_green,color_incorrect,practice_4,,no,color,vase_glass_blue,3,,"[2998, 'no']",,practice_trial,vase_wood_green,,[],39,No,Yes,,4,1,Male,ENglish,Chrome,Mac,900,1440,3.3895666666666666,
1704,list3,green,bag_plastic_blue,color_incorrect,practice_5,,no,color,bag_plastic_green,4,,"[2977, 'no']",,practice_trial,bag_paper_blue,,[],39,No,Yes,,4,1,Male,ENglish,Chrome,Mac,900,1440,3.3895666666666666,
1704,list3,wooden,door_steel_yellow,material_correct,practice_6,,yes,material,door_steel_red,1,,"[4097, 'yes']",,practice_trial,door_wood_yellow,,[],39,No,Yes,,4,1,Male,ENglish,Chrome,Mac,900,1440,3.3895666666666666,
1704,list3,brown,boot_leather_brown,color2_incorrect,blg_blb_brb,blg_blb_brb_2,no,color,boot_rubber_brown,"['4', '5']",,"[2761, 'no']",,11,boot_leather_green,,[],39,No,Yes,,4,1,Male,ENglish,Chrome,Mac,900,1440,3.3895666666666666,
1704,list3,plastic,chair_metal_green,material2_correct,cmp_cmg_cpg,cmp_cmg_cpg_2,yes,material,chair_plastic_green,2,,"[4332, 'no']",,12,chair_metal_purple,,[],39,No,Yes,,4,1,Male,ENglish,Chrome,Mac,900,1440,3.3895666666666666,
1704,list3,blue,pitcher_glass_blue,color1_correct,pmb_pgb_pgg,pmb_pgb_pgg_1,yes,color,pitcher_glass_green,2,,"[1956, 'no']",,13,pitcher_metal_blue,,[],39,No,Yes,,4,1,Male,ENglish,Chrome,Mac,900,1440,3.3895666666666666,
1704,list3,metal,table_metal_blue,material1_incorrect,tmso_tmb_twb,tmso_tmb_twb_2,no,material,table_wood_blue,"['3', '4']",,"[2961, 'no']",,14,table_metal_silver_original,,[],39,No,Yes,,4,1,Male,ENglish,Chrome,Mac,900,1440,3.3895666666666666,
1704,list3,paper,plate_plastic_blue_original,material1_correct,ppb_ppbo_ppp,ppb_ppbo_ppp_1,yes,material,plate_plastic_pink,1,,"[4796, 'yes']",,15,plate_paper_blue,,[],39,No,Yes,,4,1,Male,ENglish,Chrome,Mac,900,1440,3.3895666666666666,
1704,list3,green,plate_plastic_blue_original,color2_incorrect,ppb_ppbo_ppg,ppb_ppbo_ppg_1,no,color,plate_plastic_green,"['3', '4']",,"[3643, 'no']",,16,plate_paper_blue,,[],39,No,Yes,,4,1,Male,ENglish,Chrome,Mac,900,1440,3.3895666666666666,
1704,list3,denim,jacket_leather_purple,material1_incorrect,jdp_jlp_jlbo,jdp_jlp_jlbo_1,no,material,jacket_leather_black_original,"['2', '3']",,"[2907, 'no']",,17,jacket_denim_purple,,[],39,No,Yes,,4,1,Male,ENglish,Chrome,Mac,900,1440,3.3895666666666666,
1704,list3,blue,spoon_wood_blue,color2_correct,swg_swb_spb,swg_swb_spb_1,yes,color,spoon_plastic_blue,3,,"[2377, 'no']",,18,spoon_wood_green,,[],39,No,Yes,,4,1,Male,ENglish,Chrome,Mac,900,1440,3.3895666666666666,
1704,list3,metal,chair_metal_purple,material1_correct,cmg_cmp_cpp,cmg_cmp_cpp_1,yes,material,chair_plastic_purple,2,,"[4877, 'yes']",,19,chair_metal_green,,[],39,No,Yes,,4,1,Male,ENglish,Chrome,Mac,900,1440,3.3895666666666666,
1704,list3,blue,table_wood_blue,color1_correct,tmb_twb_twg,tmb_twb_twg_1,yes,color,table_wood_green,2,,"[1815, 'no']",,20,table_metal_blue,,[],39,No,Yes,,4,1,Male,ENglish,Chrome,Mac,900,1440,3.3895666666666666,
1704,list3,metal,table_metal_blue,material1_correct,tmg_tmb_twb,tmg_tmb_twb_2,yes,material,table_wood_blue,2,,"[3567, 'yes']",,21,table_metal_green,,[],39,No,Yes,,4,1,Male,ENglish,Chrome,Mac,900,1440,3.3895666666666666,
1704,list3,plastic,cup_metal_green,material1_correct,cpg_cmg_cmso,cpg_cmg_cmso_1,yes,material,cup_metal_silver_original,1,,"[2770, 'yes']",,22,cup_plastic_green,,[],39,No,Yes,,4,1,Male,ENglish,Chrome,Mac,900,1440,3.3895666666666666,
1704,list3,green,spoon_wood_blue,color1_incorrect,swg_swb_smb,swg_swb_smb_1,no,color,spoon_metal_blue,"['2', '3']",,"[3828, 'no']",,23,spoon_wood_green,,[],39,No,Yes,,4,1,Male,ENglish,Chrome,Mac,900,1440,3.3895666666666666,
1704,list3,leather,jacket_leather_purple,material2_correct,jdp_jlp_jlg,jdp_jlp_jlg_1,yes,material,jacket_leather_green,3,,"[4432, 'yes']",,24,jacket_denim_purple,,[],39,No,Yes,,4,1,Male,ENglish,Chrome,Mac,900,1440,3.3895666666666666,
1704,list3,blue,pitcher_plastic_blue,color1_incorrect,pmb_ppb_ppg,pmb_ppb_ppg_2,no,color,pitcher_plastic_green,"['3', '4']",,"[4550, 'no']",,25,pitcher_metal_blue,,[],39,No,Yes,,4,1,Male,ENglish,Chrome,Mac,900,1440,3.3895666666666666,
1704,list3,metal,chair_metal_purple,material1_incorrect,cmg_cmp_cwp,cmg_cmp_cwp_2,no,material,chair_wood_purple,"['3', '4']",,"[3634, 'no']",,26,chair_metal_green,,[],39,No,Yes,,4,1,Male,ENglish,Chrome,Mac,900,1440,3.3895666666666666,
1704,list3,blue,cup_metal_green,color2_incorrect,cpg_cmg_cmb,cpg_cmg_cmb_1,no,color,cup_metal_blue,"['3', '4']",,"[2507, 'no']",,27,cup_plastic_green,,[],39,No,Yes,,4,1,Male,ENglish,Chrome,Mac,900,1440,3.3895666666666666,
1704,list3,wooden,chair_metal_green,material2_incorrect,cmp_cmg_cwg,cmp_cmg_cwg_2,no,material,chair_wood_green,"['3', '4']",,"[3134, 'no']",,28,chair_metal_purple,,[],39,No,Yes,,4,1,Male,ENglish,Chrome,Mac,900,1440,3.3895666666666666,
1704,list3,wooden,table_metal_green,material2_correct,tmso_tmg_twg,tmso_tmg_twg_2,yes,material,table_wood_green,2,,"[2405, 'yes']",,29,table_metal_silver_original,,[],39,No,Yes,,4,1,Male,ENglish,Chrome,Mac,900,1440,3.3895666666666666,
1704,list3,plastic,bottle_plastic_green,material2_incorrect,bgg_bpg_bpb,bgg_bpg_bpb_1,no,material,bottle_plastic_blue,"['4', '5']",,"[4156, 'no']",,30,bottle_glass_green,,[],39,No,Yes,,4,1,Male,ENglish,Chrome,Mac,900,1440,3.3895666666666666,
1704,list3,plastic,plate_paper_blue,material1_incorrect,ppbo_ppb_ppg,ppbo_ppb_ppg_1,no,material,plate_paper_green,"['2', '3']",,"[3517, 'no']",,31,plate_plastic_blue_original,,[],39,No,Yes,,4,1,Male,ENglish,Chrome,Mac,900,1440,3.3895666666666666,
1704,list3,blue,plate_paper_green,color1_correct,ppb_ppg_ppg,ppb_ppg_ppg_2,yes,color,plate_plastic_green,1,,"[2495, 'yes']",,32,plate_paper_blue,,[],39,No,Yes,,4,1,Male,ENglish,Chrome,Mac,900,1440,3.3895666666666666,
1704,list3,glass,pitcher_glass_blue,material2_incorrect,pmb_pgb_pgco,pmb_pgb_pgco_1,no,material,pitcher_glass_clear_original,"['4', '5']",,"[2320, 'no']",,33,pitcher_metal_blue,,[],39,No,Yes,,4,1,Male,ENglish,Chrome,Mac,900,1440,3.3895666666666666,
1704,list3,white,pitcher_plastic_blue,color2_correct,pmb_ppb_ppwo,pmb_ppb_ppwo_1,yes,color,pitcher_plastic_white_original,2,,"[2277, 'yes']",,34,pitcher_metal_blue,,[],39,No,Yes,,4,1,Male,ENglish,Chrome,Mac,900,1440,3.3895666666666666,
1704,list3,green,table_metal_green,color2_incorrect,tmb_tmg_twg,tmb_tmg_twg_2,no,color,table_wood_green,"['4', '5']",,"[3590, 'no']",,35,table_metal_blue,,[],39,No,Yes,,4,1,Male,ENglish,Chrome,Mac,900,1440,3.3895666666666666,
1704,list3,green,bottle_glass_green,color1_incorrect,bpg_bgg_bgb,bpg_bgg_bgb_1,no,color,bottle_glass_blue,"['3', '4']",,"[2572, 'no']",,36,bottle_plastic_green,,[],39,No,Yes,,4,1,Male,ENglish,Chrome,Mac,900,1440,3.3895666666666666,
1704,list3,paper,plate_paper_blue,material2_correct,ppbo_ppb_ppwo,ppbo_ppb_ppwo_1,yes,material,plate_paper_white_original,3,,"[4808, 'yes']",,37,plate_plastic_blue_original,,[],39,No,Yes,,4,1,Male,ENglish,Chrome,Mac,900,1440,3.3895666666666666,
1704,list3,clear,bottle_glass_green,color2_correct,bpg_bgg_bgco,bpg_bgg_bgco_2,yes,color,bottle_glass_clear_original,2,,"[1993, 'no']",,38,bottle_plastic_green,,[],39,No,Yes,,4,1,Male,ENglish,Chrome,Mac,900,1440,3.3895666666666666,
1704,list3,wooden,table_wood_blue,material2_incorrect,tmb_twb_twbo,tmb_twb_twbo_1,no,material,table_wood_brown_original,"['4', '5']",,"[3464, 'no']",,39,table_metal_blue,,[],39,No,Yes,,4,1,Male,ENglish,Chrome,Mac,900,1440,3.3895666666666666,
1704,list3,green,bottle_plastic_green,color1_correct,bgg_bpg_bpco,bgg_bpg_bpco_2,yes,color,bottle_plastic_clear_original,2,,"[2114, 'yes']",,40,bottle_glass_green,,[],39,No,Yes,,4,1,Male,ENglish,Chrome,Mac,900,1440,3.3895666666666666,
1704,list3,black,boot_leather_black_original,color2_correct,blg_blbo_brbo,blg_blbo_brbo_2,yes,color,boot_rubber_black_original,3,,"[2437, 'yes']",,41,boot_leather_green,,[],39,No,Yes,,4,1,Male,ENglish,Chrome,Mac,900,1440,3.3895666666666666,
1710,list3,,,,,,,,,,Patricia,patricia,0,1,,bot_check,[],19,Yes,No,,2,0,Female,english,Chrome,Mac,900,1440,2.9548666666666668,
1710,list3,blue,box_wood_blue,color_correct,practice_1,,yes,color,box_wood_brown,2,,"[3800, 'yes']",,practice_trial,box_cardboard_blue,,[],19,Yes,No,,2,0,Female,english,Chrome,Mac,900,1440,2.9548666666666668,
1710,list3,plastic,ball_metal_red,material_incorrect,practice_2,,no,material,ball_plastic_red,4,,"[5481, 'no']",,practice_trial,ball_metal_green,,[],19,Yes,No,,2,0,Female,english,Chrome,Mac,900,1440,2.9548666666666668,
1710,list3,metal,bowl_glass_blue,material_correct,practice_3,,yes,material,bowl_metal_blue,2,,"[5385, 'yes']",,practice_trial,bowl_glass_green,,[],19,Yes,No,,2,0,Female,english,Chrome,Mac,900,1440,2.9548666666666668,
1710,list3,blue,vase_glass_green,color_incorrect,practice_4,,no,color,vase_glass_blue,3,,"[7180, 'no']",,practice_trial,vase_wood_green,,[],19,Yes,No,,2,0,Female,english,Chrome,Mac,900,1440,2.9548666666666668,
1710,list3,green,bag_plastic_blue,color_incorrect,practice_5,,no,color,bag_plastic_green,4,,"[4304, 'no']",,practice_trial,bag_paper_blue,,[],19,Yes,No,,2,0,Female,english,Chrome,Mac,900,1440,2.9548666666666668,
1710,list3,wooden,door_steel_yellow,material_correct,practice_6,,yes,material,door_steel_red,1,,"[5125, 'no']",,practice_trial,door_wood_yellow,,[],19,Yes,No,,2,0,Female,english,Chrome,Mac,900,1440,2.9548666666666668,
1710,list3,paper,plate_paper_blue,material2_correct,ppbo_ppb_ppwo,ppbo_ppb_ppwo_2,yes,material,plate_paper_white_original,3,,"[5931, 'yes']",,11,plate_plastic_blue_original,,[],19,Yes,No,,2,0,Female,english,Chrome,Mac,900,1440,2.9548666666666668,
1710,list3,blue,cup_metal_green,color2_incorrect,cpg_cmg_cmb,cpg_cmg_cmb_1,no,color,cup_metal_blue,"['3', '4']",,"[2956, 'no']",,12,cup_plastic_green,,[],19,Yes,No,,2,0,Female,english,Chrome,Mac,900,1440,2.9548666666666668,
1710,list3,denim,jacket_leather_purple,material1_incorrect,jdp_jlp_jlbo,jdp_jlp_jlbo_1,no,material,jacket_leather_black_original,"['2', '3']",,"[2983, 'yes']",,13,jacket_denim_purple,,[],19,Yes,No,,2,0,Female,english,Chrome,Mac,900,1440,2.9548666666666668,
1710,list3,green,table_metal_green,color2_incorrect,tmb_tmg_twg,tmb_tmg_twg_1,no,color,table_wood_green,"['4', '5']",,"[5008, 'no']",,14,table_metal_blue,,[],19,Yes,No,,2,0,Female,english,Chrome,Mac,900,1440,2.9548666666666668,
1710,list3,paper,plate_plastic_blue_original,material1_correct,ppb_ppbo_ppp,ppb_ppbo_ppp_2,yes,material,plate_plastic_pink,1,,"[6558, 'yes']",,15,plate_paper_blue,,[],19,Yes,No,,2,0,Female,english,Chrome,Mac,900,1440,2.9548666666666668,
1710,list3,green,bottle_plastic_green,color1_correct,bgg_bpg_bpco,bgg_bpg_bpco_1,yes,color,bottle_plastic_clear_original,2,,"[2882, 'yes']",,16,bottle_glass_green,,[],19,Yes,No,,2,0,Female,english,Chrome,Mac,900,1440,2.9548666666666668,
1710,list3,green,plate_plastic_blue_original,color2_incorrect,ppb_ppbo_ppg,ppb_ppbo_ppg_1,no,color,plate_plastic_green,"['3', '4']",,"[2346, 'no']",,17,plate_paper_blue,,[],19,Yes,No,,2,0,Female,english,Chrome,Mac,900,1440,2.9548666666666668,
1710,list3,plastic,plate_paper_blue,material1_incorrect,ppbo_ppb_ppg,ppbo_ppb_ppg_2,no,material,plate_paper_green,"['2', '3']",,"[7407, 'no']",,18,plate_plastic_blue_original,,[],19,Yes,No,,2,0,Female,english,Chrome,Mac,900,1440,2.9548666666666668,
1710,list3,black,boot_leather_black_original,color2_correct,blg_blbo_brbo,blg_blbo_brbo_2,yes,color,boot_rubber_black_original,3,,"[3945, 'yes']",,19,boot_leather_green,,[],19,Yes,No,,2,0,Female,english,Chrome,Mac,900,1440,2.9548666666666668,
1710,list3,brown,boot_leather_brown,color2_incorrect,blg_blb_brb,blg_blb_brb_2,no,color,boot_rubber_brown,"['4', '5']",,"[5280, 'no']",,20,boot_leather_green,,[],19,Yes,No,,2,0,Female,english,Chrome,Mac,900,1440,2.9548666666666668,
1710,list3,wooden,table_wood_blue,material2_incorrect,tmb_twb_twbo,tmb_twb_twbo_1,no,material,table_wood_brown_original,"['4', '5']",,"[4080, 'no']",,21,table_metal_blue,,[],19,Yes,No,,2,0,Female,english,Chrome,Mac,900,1440,2.9548666666666668,
1710,list3,glass,pitcher_glass_blue,material2_incorrect,pmb_pgb_pgco,pmb_pgb_pgco_2,no,material,pitcher_glass_clear_original,"['4', '5']",,"[3234, 'no']",,22,pitcher_metal_blue,,[],19,Yes,No,,2,0,Female,english,Chrome,Mac,900,1440,2.9548666666666668,
1710,list3,metal,table_metal_blue,material1_correct,tmg_tmb_twb,tmg_tmb_twb_2,yes,material,table_wood_blue,2,,"[3069, 'yes']",,23,table_metal_green,,[],19,Yes,No,,2,0,Female,english,Chrome,Mac,900,1440,2.9548666666666668,
1710,list3,metal,chair_metal_purple,material1_incorrect,cmg_cmp_cwp,cmg_cmp_cwp_2,no,material,chair_wood_purple,"['3', '4']",,"[3430, 'no']",,24,chair_metal_green,,[],19,Yes,No,,2,0,Female,english,Chrome,Mac,900,1440,2.9548666666666668,
1710,list3,blue,pitcher_plastic_blue,color1_incorrect,pmb_ppb_ppg,pmb_ppb_ppg_1,no,color,pitcher_plastic_green,"['3', '4']",,"[4056, 'no']",,25,pitcher_metal_blue,,[],19,Yes,No,,2,0,Female,english,Chrome,Mac,900,1440,2.9548666666666668,
1710,list3,clear,bottle_glass_green,color2_correct,bpg_bgg_bgco,bpg_bgg_bgco_2,yes,color,bottle_glass_clear_original,2,,"[5926, 'no']",,26,bottle_plastic_green,,[],19,Yes,No,,2,0,Female,english,Chrome,Mac,900,1440,2.9548666666666668,
1710,list3,blue,pitcher_glass_blue,color1_correct,pmb_pgb_pgg,pmb_pgb_pgg_1,yes,color,pitcher_glass_green,2,,"[2254, 'yes']",,27,pitcher_metal_blue,,[],19,Yes,No,,2,0,Female,english,Chrome,Mac,900,1440,2.9548666666666668,
1710,list3,blue,plate_paper_green,color1_correct,ppb_ppg_ppg,ppb_ppg_ppg_1,yes,color,plate_plastic_green,1,,"[1815, 'no']",,28,plate_paper_blue,,[],19,Yes,No,,2,0,Female,english,Chrome,Mac,900,1440,2.9548666666666668,
1710,list3,leather,jacket_leather_purple,material2_correct,jdp_jlp_jlg,jdp_jlp_jlg_1,yes,material,jacket_leather_green,3,,"[1939, 'no']",,29,jacket_denim_purple,,[],19,Yes,No,,2,0,Female,english,Chrome,Mac,900,1440,2.9548666666666668,
1710,list3,wooden,chair_metal_green,material2_incorrect,cmp_cmg_cwg,cmp_cmg_cwg_2,no,material,chair_wood_green,"['3', '4']",,"[1903, 'yes']",,30,chair_metal_purple,,[],19,Yes,No,,2,0,Female,english,Chrome,Mac,900,1440,2.9548666666666668,
1710,list3,plastic,cup_metal_green,material1_correct,cpg_cmg_cmso,cpg_cmg_cmso_2,yes,material,cup_metal_silver_original,1,,"[5761, 'yes']",,31,cup_plastic_green,,[],19,Yes,No,,2,0,Female,english,Chrome,Mac,900,1440,2.9548666666666668,
1710,list3,wooden,table_metal_green,material2_correct,tmso_tmg_twg,tmso_tmg_twg_1,yes,material,table_wood_green,2,,"[2436, 'yes']",,32,table_metal_silver_original,,[],19,Yes,No,,2,0,Female,english,Chrome,Mac,900,1440,2.9548666666666668,
1710,list3,plastic,chair_metal_green,material2_correct,cmp_cmg_cpg,cmp_cmg_cpg_2,yes,material,chair_plastic_green,2,,"[2822, 'yes']",,33,chair_metal_purple,,[],19,Yes,No,,2,0,Female,english,Chrome,Mac,900,1440,2.9548666666666668,
1710,list3,blue,table_wood_blue,color1_correct,tmb_twb_twg,tmb_twb_twg_1,yes,color,table_wood_green,2,,"[1838, 'yes']",,34,table_metal_blue,,[],19,Yes,No,,2,0,Female,english,Chrome,Mac,900,1440,2.9548666666666668,
1710,list3,green,spoon_wood_blue,color1_incorrect,swg_swb_smb,swg_swb_smb_2,no,color,spoon_metal_blue,"['2', '3']",,"[2398, 'no']",,35,spoon_wood_green,,[],19,Yes,No,,2,0,Female,english,Chrome,Mac,900,1440,2.9548666666666668,
1710,list3,metal,table_metal_blue,material1_incorrect,tmso_tmb_twb,tmso_tmb_twb_2,no,material,table_wood_blue,"['3', '4']",,"[2051, 'no']",,36,table_metal_silver_original,,[],19,Yes,No,,2,0,Female,english,Chrome,Mac,900,1440,2.9548666666666668,
1710,list3,plastic,bottle_plastic_green,material2_incorrect,bgg_bpg_bpb,bgg_bpg_bpb_2,no,material,bottle_plastic_blue,"['4', '5']",,"[2163, 'no']",,37,bottle_glass_green,,[],19,Yes,No,,2,0,Female,english,Chrome,Mac,900,1440,2.9548666666666668,
1710,list3,metal,chair_metal_purple,material1_correct,cmg_cmp_cpp,cmg_cmp_cpp_2,yes,material,chair_plastic_purple,2,,"[2345, 'yes']",,38,chair_metal_green,,[],19,Yes,No,,2,0,Female,english,Chrome,Mac,900,1440,2.9548666666666668,
1710,list3,blue,spoon_wood_blue,color2_correct,swg_swb_spb,swg_swb_spb_1,yes,color,spoon_plastic_blue,3,,"[1354, 'no']",,39,spoon_wood_green,,[],19,Yes,No,,2,0,Female,english,Chrome,Mac,900,1440,2.9548666666666668,
1710,list3,green,bottle_glass_green,color1_incorrect,bpg_bgg_bgb,bpg_bgg_bgb_2,no,color,bottle_glass_blue,"['3', '4']",,"[1002, 'yes']",,40,bottle_plastic_green,,[],19,Yes,No,,2,0,Female,english,Chrome,Mac,900,1440,2.9548666666666668,
1710,list3,white,pitcher_plastic_blue,color2_correct,pmb_ppb_ppwo,pmb_ppb_ppwo_1,yes,color,pitcher_plastic_white_original,2,,"[933, 'yes']",,41,pitcher_metal_blue,,[],19,Yes,No,,2,0,Female,english,Chrome,Mac,900,1440,2.9548666666666668,
1706,list3,,,,,,,,,,Margaret,margaret,0,1,,bot_check,[],21,Yes,No,,3,1,Female,English,Chrome,Mac,900,1440,2.554333333333333,
1706,list3,blue,box_wood_blue,color_correct,practice_1,,yes,color,box_wood_brown,2,,"[6256, 'yes']",,practice_trial,box_cardboard_blue,,[],21,Yes,No,,3,1,Female,English,Chrome,Mac,900,1440,2.554333333333333,
1706,list3,plastic,ball_metal_red,material_incorrect,practice_2,,no,material,ball_plastic_red,4,,"[6300, 'no']",,practice_trial,ball_metal_green,,[],21,Yes,No,,3,1,Female,English,Chrome,Mac,900,1440,2.554333333333333,
1706,list3,metal,bowl_glass_blue,material_correct,practice_3,,yes,material,bowl_metal_blue,2,,"[3629, 'yes']",,practice_trial,bowl_glass_green,,[],21,Yes,No,,3,1,Female,English,Chrome,Mac,900,1440,2.554333333333333,
1706,list3,blue,vase_glass_green,color_incorrect,practice_4,,no,color,vase_glass_blue,3,,"[2798, 'no']",,practice_trial,vase_wood_green,,[],21,Yes,No,,3,1,Female,English,Chrome,Mac,900,1440,2.554333333333333,
1706,list3,green,bag_plastic_blue,color_incorrect,practice_5,,no,color,bag_plastic_green,4,,"[2237, 'yes']",,practice_trial,bag_paper_blue,,[],21,Yes,No,,3,1,Female,English,Chrome,Mac,900,1440,2.554333333333333,
1706,list3,wooden,door_steel_yellow,material_correct,practice_6,,yes,material,door_steel_red,1,,"[3167, 'yes']",,practice_trial,door_wood_yellow,,[],21,Yes,No,,3,1,Female,English,Chrome,Mac,900,1440,2.554333333333333,
1706,list3,green,spoon_wood_blue,color1_incorrect,swg_swb_smb,swg_swb_smb_1,no,color,spoon_metal_blue,"['2', '3']",,"[2966, 'no']",,11,spoon_wood_green,,[],21,Yes,No,,3,1,Female,English,Chrome,Mac,900,1440,2.554333333333333,
1706,list3,black,boot_leather_black_original,color2_correct,blg_blbo_brbo,blg_blbo_brbo_1,yes,color,boot_rubber_black_original,3,,"[2559, 'yes']",,12,boot_leather_green,,[],21,Yes,No,,3,1,Female,English,Chrome,Mac,900,1440,2.554333333333333,
1706,list3,metal,table_metal_blue,material1_incorrect,tmso_tmb_twb,tmso_tmb_twb_2,no,material,table_wood_blue,"['3', '4']",,"[3700, 'no']",,13,table_metal_silver_original,,[],21,Yes,No,,3,1,Female,English,Chrome,Mac,900,1440,2.554333333333333,
1706,list3,glass,pitcher_glass_blue,material2_incorrect,pmb_pgb_pgco,pmb_pgb_pgco_1,no,material,pitcher_glass_clear_original,"['4', '5']",,"[3913, 'no']",,14,pitcher_metal_blue,,[],21,Yes,No,,3,1,Female,English,Chrome,Mac,900,1440,2.554333333333333,
1706,list3,clear,bottle_glass_green,color2_correct,bpg_bgg_bgco,bpg_bgg_bgco_2,yes,color,bottle_glass_clear_original,2,,"[2443, 'yes']",,15,bottle_plastic_green,,[],21,Yes,No,,3,1,Female,English,Chrome,Mac,900,1440,2.554333333333333,
1706,list3,paper,plate_paper_blue,material2_correct,ppbo_ppb_ppwo,ppbo_ppb_ppwo_1,yes,material,plate_paper_white_original,3,,"[5075, 'no']",,16,plate_plastic_blue_original,,[],21,Yes,No,,3,1,Female,English,Chrome,Mac,900,1440,2.554333333333333,
1706,list3,green,bottle_plastic_green,color1_correct,bgg_bpg_bpco,bgg_bpg_bpco_1,yes,color,bottle_plastic_clear_original,2,,"[3837, 'yes']",,17,bottle_glass_green,,[],21,Yes,No,,3,1,Female,English,Chrome,Mac,900,1440,2.554333333333333,
1706,list3,plastic,cup_metal_green,material1_correct,cpg_cmg_cmso,cpg_cmg_cmso_1,yes,material,cup_metal_silver_original,1,,"[2989, 'yes']",,18,cup_plastic_green,,[],21,Yes,No,,3,1,Female,English,Chrome,Mac,900,1440,2.554333333333333,
1706,list3,leather,jacket_leather_purple,material2_correct,jdp_jlp_jlg,jdp_jlp_jlg_2,yes,material,jacket_leather_green,3,,"[3363, 'yes']",,19,jacket_denim_purple,,[],21,Yes,No,,3,1,Female,English,Chrome,Mac,900,1440,2.554333333333333,
1706,list3,plastic,plate_paper_blue,material1_incorrect,ppbo_ppb_ppg,ppbo_ppb_ppg_1,no,material,plate_paper_green,"['2', '3']",,"[3859, 'no']",,20,plate_plastic_blue_original,,[],21,Yes,No,,3,1,Female,English,Chrome,Mac,900,1440,2.554333333333333,
1706,list3,white,pitcher_plastic_blue,color2_correct,pmb_ppb_ppwo,pmb_ppb_ppwo_2,yes,color,pitcher_plastic_white_original,2,,"[3310, 'yes']",,21,pitcher_metal_blue,,[],21,Yes,No,,3,1,Female,English,Chrome,Mac,900,1440,2.554333333333333,
1706,list3,metal,chair_metal_purple,material1_correct,cmg_cmp_cpp,cmg_cmp_cpp_2,yes,material,chair_plastic_purple,2,,"[3639, 'no']",,22,chair_metal_green,,[],21,Yes,No,,3,1,Female,English,Chrome,Mac,900,1440,2.554333333333333,
1706,list3,metal,chair_metal_purple,material1_incorrect,cmg_cmp_cwp,cmg_cmp_cwp_1,no,material,chair_wood_purple,"['3', '4']",,"[2928, 'no']",,23,chair_metal_green,,[],21,Yes,No,,3,1,Female,English,Chrome,Mac,900,1440,2.554333333333333,
1706,list3,plastic,bottle_plastic_green,material2_incorrect,bgg_bpg_bpb,bgg_bpg_bpb_2,no,material,bottle_plastic_blue,"['4', '5']",,"[4338, 'yes']",,24,bottle_glass_green,,[],21,Yes,No,,3,1,Female,English,Chrome,Mac,900,1440,2.554333333333333,
1706,list3,wooden,table_wood_blue,material2_incorrect,tmb_twb_twbo,tmb_twb_twbo_1,no,material,table_wood_brown_original,"['4', '5']",,"[3604, 'no']",,25,table_metal_blue,,[],21,Yes,No,,3,1,Female,English,Chrome,Mac,900,1440,2.554333333333333,
1706,list3,blue,cup_metal_green,color2_incorrect,cpg_cmg_cmb,cpg_cmg_cmb_1,no,color,cup_metal_blue,"['3', '4']",,"[2242, 'no']",,26,cup_plastic_green,,[],21,Yes,No,,3,1,Female,English,Chrome,Mac,900,1440,2.554333333333333,
1706,list3,green,table_metal_green,color2_incorrect,tmb_tmg_twg,tmb_tmg_twg_1,no,color,table_wood_green,"['4', '5']",,"[2134, 'no']",,27,table_metal_blue,,[],21,Yes,No,,3,1,Female,English,Chrome,Mac,900,1440,2.554333333333333,
1706,list3,blue,spoon_wood_blue,color2_correct,swg_swb_spb,swg_swb_spb_1,yes,color,spoon_plastic_blue,3,,"[2359, 'yes']",,28,spoon_wood_green,,[],21,Yes,No,,3,1,Female,English,Chrome,Mac,900,1440,2.554333333333333,
1706,list3,denim,jacket_leather_purple,material1_incorrect,jdp_jlp_jlbo,jdp_jlp_jlbo_2,no,material,jacket_leather_black_original,"['2', '3']",,"[2877, 'no']",,29,jacket_denim_purple,,[],21,Yes,No,,3,1,Female,English,Chrome,Mac,900,1440,2.554333333333333,
1706,list3,green,plate_plastic_blue_original,color2_incorrect,ppb_ppbo_ppg,ppb_ppbo_ppg_2,no,color,plate_plastic_green,"['3', '4']",,"[2144, 'no']",,30,plate_paper_blue,,[],21,Yes,No,,3,1,Female,English,Chrome,Mac,900,1440,2.554333333333333,
1706,list3,wooden,chair_metal_green,material2_incorrect,cmp_cmg_cwg,cmp_cmg_cwg_1,no,material,chair_wood_green,"['3', '4']",,"[2103, 'no']",,31,chair_metal_purple,,[],21,Yes,No,,3,1,Female,English,Chrome,Mac,900,1440,2.554333333333333,
1706,list3,brown,boot_leather_brown,color2_incorrect,blg_blb_brb,blg_blb_brb_1,no,color,boot_rubber_brown,"['4', '5']",,"[1974, 'no']",,32,boot_leather_green,,[],21,Yes,No,,3,1,Female,English,Chrome,Mac,900,1440,2.554333333333333,
1706,list3,blue,pitcher_glass_blue,color1_correct,pmb_pgb_pgg,pmb_pgb_pgg_2,yes,color,pitcher_glass_green,2,,"[2033, 'yes']",,33,pitcher_metal_blue,,[],21,Yes,No,,3,1,Female,English,Chrome,Mac,900,1440,2.554333333333333,
1706,list3,blue,pitcher_plastic_blue,color1_incorrect,pmb_ppb_ppg,pmb_ppb_ppg_2,no,color,pitcher_plastic_green,"['3', '4']",,"[2086, 'no']",,34,pitcher_metal_blue,,[],21,Yes,No,,3,1,Female,English,Chrome,Mac,900,1440,2.554333333333333,
1706,list3,wooden,table_metal_green,material2_correct,tmso_tmg_twg,tmso_tmg_twg_1,yes,material,table_wood_green,2,,"[2886, 'yes']",,35,table_metal_silver_original,,[],21,Yes,No,,3,1,Female,English,Chrome,Mac,900,1440,2.554333333333333,
1706,list3,plastic,chair_metal_green,material2_correct,cmp_cmg_cpg,cmp_cmg_cpg_2,yes,material,chair_plastic_green,2,,"[2606, 'yes']",,36,chair_metal_purple,,[],21,Yes,No,,3,1,Female,English,Chrome,Mac,900,1440,2.554333333333333,
1706,list3,blue,table_wood_blue,color1_correct,tmb_twb_twg,tmb_twb_twg_2,yes,color,table_wood_green,2,,"[2093, 'yes']",,37,table_metal_blue,,[],21,Yes,No,,3,1,Female,English,Chrome,Mac,900,1440,2.554333333333333,
1706,list3,blue,plate_paper_green,color1_correct,ppb_ppg_ppg,ppb_ppg_ppg_2,yes,color,plate_plastic_green,1,,"[2814, 'yes']",,38,plate_paper_blue,,[],21,Yes,No,,3,1,Female,English,Chrome,Mac,900,1440,2.554333333333333,
1706,list3,metal,table_metal_blue,material1_correct,tmg_tmb_twb,tmg_tmb_twb_2,yes,material,table_wood_blue,2,,"[2027, 'yes']",,39,table_metal_green,,[],21,Yes,No,,3,1,Female,English,Chrome,Mac,900,1440,2.554333333333333,
1706,list3,paper,plate_plastic_blue_original,material1_correct,ppb_ppbo_ppp,ppb_ppbo_ppp_1,yes,material,plate_plastic_pink,1,,"[2954, 'yes']",,40,plate_paper_blue,,[],21,Yes,No,,3,1,Female,English,Chrome,Mac,900,1440,2.554333333333333,
1706,list3,green,bottle_glass_green,color1_incorrect,bpg_bgg_bgb,bpg_bgg_bgb_1,no,color,bottle_glass_blue,"['3', '4']",,"[2447, 'no']",,41,bottle_plastic_green,,[],21,Yes,No,,3,1,Female,English,Chrome,Mac,900,1440,2.554333333333333,
1715,list3,,,,,,,,,,Jennifer,Jennifer,0,1,,bot_check,[],53,Yes,No,,1,1,Female,english,Chrome,Windows,1200,1600,4.297616666666666,
1715,list3,blue,box_wood_blue,color_correct,practice_1,,yes,color,box_wood_brown,2,,"[5209, 'yes']",,practice_trial,box_cardboard_blue,,[],53,Yes,No,,1,1,Female,english,Chrome,Windows,1200,1600,4.297616666666666,
1715,list3,plastic,ball_metal_red,material_incorrect,practice_2,,no,material,ball_plastic_red,4,,"[6124, 'yes']",,practice_trial,ball_metal_green,,[],53,Yes,No,,1,1,Female,english,Chrome,Windows,1200,1600,4.297616666666666,
1715,list3,metal,bowl_glass_blue,material_correct,practice_3,,yes,material,bowl_metal_blue,2,,"[5438, 'yes']",,practice_trial,bowl_glass_green,,[],53,Yes,No,,1,1,Female,english,Chrome,Windows,1200,1600,4.297616666666666,
1715,list3,blue,vase_glass_green,color_incorrect,practice_4,,no,color,vase_glass_blue,3,,"[4440, 'no']",,practice_trial,vase_wood_green,,[],53,Yes,No,,1,1,Female,english,Chrome,Windows,1200,1600,4.297616666666666,
1715,list3,green,bag_plastic_blue,color_incorrect,practice_5,,no,color,bag_plastic_green,4,,"[3112, 'no']",,practice_trial,bag_paper_blue,,[],53,Yes,No,,1,1,Female,english,Chrome,Windows,1200,1600,4.297616666666666,
1715,list3,wooden,door_steel_yellow,material_correct,practice_6,,yes,material,door_steel_red,1,,"[7344, 'no']",,practice_trial,door_wood_yellow,,[],53,Yes,No,,1,1,Female,english,Chrome,Windows,1200,1600,4.297616666666666,
1715,list3,plastic,bottle_plastic_green,material2_incorrect,bgg_bpg_bpb,bgg_bpg_bpb_1,no,material,bottle_plastic_blue,"['4', '5']",,"[5352, 'no']",,11,bottle_glass_green,,[],53,Yes,No,,1,1,Female,english,Chrome,Windows,1200,1600,4.297616666666666,
1715,list3,paper,plate_plastic_blue_original,material1_correct,ppb_ppbo_ppp,ppb_ppbo_ppp_1,yes,material,plate_plastic_pink,1,,"[3191, 'no']",,12,plate_paper_blue,,[],53,Yes,No,,1,1,Female,english,Chrome,Windows,1200,1600,4.297616666666666,
1715,list3,green,plate_plastic_blue_original,color2_incorrect,ppb_ppbo_ppg,ppb_ppbo_ppg_1,no,color,plate_plastic_green,"['3', '4']",,"[3831, 'no']",,13,plate_paper_blue,,[],53,Yes,No,,1,1,Female,english,Chrome,Windows,1200,1600,4.297616666666666,
1715,list3,green,spoon_wood_blue,color1_incorrect,swg_swb_smb,swg_swb_smb_2,no,color,spoon_metal_blue,"['2', '3']",,"[3879, 'no']",,14,spoon_wood_green,,[],53,Yes,No,,1,1,Female,english,Chrome,Windows,1200,1600,4.297616666666666,
1715,list3,wooden,table_wood_blue,material2_incorrect,tmb_twb_twbo,tmb_twb_twbo_2,no,material,table_wood_brown_original,"['4', '5']",,"[3495, 'no']",,15,table_metal_blue,,[],53,Yes,No,,1,1,Female,english,Chrome,Windows,1200,1600,4.297616666666666,
1715,list3,denim,jacket_leather_purple,material1_incorrect,jdp_jlp_jlbo,jdp_jlp_jlbo_1,no,material,jacket_leather_black_original,"['2', '3']",,"[4631, 'no']",,16,jacket_denim_purple,,[],53,Yes,No,,1,1,Female,english,Chrome,Windows,1200,1600,4.297616666666666,
1715,list3,blue,pitcher_plastic_blue,color1_incorrect,pmb_ppb_ppg,pmb_ppb_ppg_1,no,color,pitcher_plastic_green,"['3', '4']",,"[3271, 'no']",,17,pitcher_metal_blue,,[],53,Yes,No,,1,1,Female,english,Chrome,Windows,1200,1600,4.297616666666666,
1715,list3,blue,spoon_wood_blue,color2_correct,swg_swb_spb,swg_swb_spb_1,yes,color,spoon_plastic_blue,3,,"[5233, 'no']",,18,spoon_wood_green,,[],53,Yes,No,,1,1,Female,english,Chrome,Windows,1200,1600,4.297616666666666,
1715,list3,metal,table_metal_blue,material1_correct,tmg_tmb_twb,tmg_tmb_twb_2,yes,material,table_wood_blue,2,,"[5069, 'yes']",,19,table_metal_green,,[],53,Yes,No,,1,1,Female,english,Chrome,Windows,1200,1600,4.297616666666666,
1715,list3,white,pitcher_plastic_blue,color2_correct,pmb_ppb_ppwo,pmb_ppb_ppwo_1,yes,color,pitcher_plastic_white_original,2,,"[3007, 'yes']",,20,pitcher_metal_blue,,[],53,Yes,No,,1,1,Female,english,Chrome,Windows,1200,1600,4.297616666666666,
1715,list3,glass,pitcher_glass_blue,material2_incorrect,pmb_pgb_pgco,pmb_pgb_pgco_1,no,material,pitcher_glass_clear_original,"['4', '5']",,"[3072, 'no']",,21,pitcher_metal_blue,,[],53,Yes,No,,1,1,Female,english,Chrome,Windows,1200,1600,4.297616666666666,
1715,list3,plastic,chair_metal_green,material2_correct,cmp_cmg_cpg,cmp_cmg_cpg_2,yes,material,chair_plastic_green,2,,"[4301, 'yes']",,22,chair_metal_purple,,[],53,Yes,No,,1,1,Female,english,Chrome,Windows,1200,1600,4.297616666666666,
1715,list3,green,table_metal_green,color2_incorrect,tmb_tmg_twg,tmb_tmg_twg_1,no,color,table_wood_green,"['4', '5']",,"[3191, 'no']",,23,table_metal_blue,,[],53,Yes,No,,1,1,Female,english,Chrome,Windows,1200,1600,4.297616666666666,
1715,list3,green,bottle_plastic_green,color1_correct,bgg_bpg_bpco,bgg_bpg_bpco_2,yes,color,bottle_plastic_clear_original,2,,"[2977, 'yes']",,24,bottle_glass_green,,[],53,Yes,No,,1,1,Female,english,Chrome,Windows,1200,1600,4.297616666666666,
1715,list3,plastic,plate_paper_blue,material1_incorrect,ppbo_ppb_ppg,ppbo_ppb_ppg_1,no,material,plate_paper_green,"['2', '3']",,"[5453, 'no']",,25,plate_plastic_blue_original,,[],53,Yes,No,,1,1,Female,english,Chrome,Windows,1200,1600,4.297616666666666,
1715,list3,metal,chair_metal_purple,material1_correct,cmg_cmp_cpp,cmg_cmp_cpp_2,yes,material,chair_plastic_purple,2,,"[4127, 'yes']",,26,chair_metal_green,,[],53,Yes,No,,1,1,Female,english,Chrome,Windows,1200,1600,4.297616666666666,
1715,list3,leather,jacket_leather_purple,material2_correct,jdp_jlp_jlg,jdp_jlp_jlg_1,yes,material,jacket_leather_green,3,,"[4873, 'yes']",,27,jacket_denim_purple,,[],53,Yes,No,,1,1,Female,english,Chrome,Windows,1200,1600,4.297616666666666,
1715,list3,plastic,cup_metal_green,material1_correct,cpg_cmg_cmso,cpg_cmg_cmso_2,yes,material,cup_metal_silver_original,1,,"[3863, 'yes']",,28,cup_plastic_green,,[],53,Yes,No,,1,1,Female,english,Chrome,Windows,1200,1600,4.297616666666666,
1715,list3,green,bottle_glass_green,color1_incorrect,bpg_bgg_bgb,bpg_bgg_bgb_2,no,color,bottle_glass_blue,"['3', '4']",,"[2839, 'no']",,29,bottle_plastic_green,,[],53,Yes,No,,1,1,Female,english,Chrome,Windows,1200,1600,4.297616666666666,
1715,list3,wooden,chair_metal_green,material2_incorrect,cmp_cmg_cwg,cmp_cmg_cwg_2,no,material,chair_wood_green,"['3', '4']",,"[3855, 'no']",,30,chair_metal_purple,,[],53,Yes,No,,1,1,Female,english,Chrome,Windows,1200,1600,4.297616666666666,
1715,list3,brown,boot_leather_brown,color2_incorrect,blg_blb_brb,blg_blb_brb_2,no,color,boot_rubber_brown,"['4', '5']",,"[4527, 'no']",,31,boot_leather_green,,[],53,Yes,No,,1,1,Female,english,Chrome,Windows,1200,1600,4.297616666666666,
1715,list3,blue,plate_paper_green,color1_correct,ppb_ppg_ppg,ppb_ppg_ppg_2,yes,color,plate_plastic_green,1,,"[3239, 'yes']",,32,plate_paper_blue,,[],53,Yes,No,,1,1,Female,english,Chrome,Windows,1200,1600,4.297616666666666,
1715,list3,metal,table_metal_blue,material1_incorrect,tmso_tmb_twb,tmso_tmb_twb_2,no,material,table_wood_blue,"['3', '4']",,"[4159, 'no']",,33,table_metal_silver_original,,[],53,Yes,No,,1,1,Female,english,Chrome,Windows,1200,1600,4.297616666666666,
1715,list3,black,boot_leather_black_original,color2_correct,blg_blbo_brbo,blg_blbo_brbo_2,yes,color,boot_rubber_black_original,3,,"[3215, 'yes']",,34,boot_leather_green,,[],53,Yes,No,,1,1,Female,english,Chrome,Windows,1200,1600,4.297616666666666,
1715,list3,clear,bottle_glass_green,color2_correct,bpg_bgg_bgco,bpg_bgg_bgco_2,yes,color,bottle_glass_clear_original,2,,"[2847, 'yes']",,35,bottle_plastic_green,,[],53,Yes,No,,1,1,Female,english,Chrome,Windows,1200,1600,4.297616666666666,
1715,list3,wooden,table_metal_green,material2_correct,tmso_tmg_twg,tmso_tmg_twg_1,yes,material,table_wood_green,2,,"[3305, 'yes']",,36,table_metal_silver_original,,[],53,Yes,No,,1,1,Female,english,Chrome,Windows,1200,1600,4.297616666666666,
1715,list3,blue,pitcher_glass_blue,color1_correct,pmb_pgb_pgg,pmb_pgb_pgg_2,yes,color,pitcher_glass_green,2,,"[3956, 'yes']",,37,pitcher_metal_blue,,[],53,Yes,No,,1,1,Female,english,Chrome,Windows,1200,1600,4.297616666666666,
1715,list3,blue,cup_metal_green,color2_incorrect,cpg_cmg_cmb,cpg_cmg_cmb_1,no,color,cup_metal_blue,"['3', '4']",,"[3055, 'no']",,38,cup_plastic_green,,[],53,Yes,No,,1,1,Female,english,Chrome,Windows,1200,1600,4.297616666666666,
1715,list3,metal,chair_metal_purple,material1_incorrect,cmg_cmp_cwp,cmg_cmp_cwp_1,no,material,chair_wood_purple,"['3', '4']",,"[3368, 'no']",,39,chair_metal_green,,[],53,Yes,No,,1,1,Female,english,Chrome,Windows,1200,1600,4.297616666666666,
1715,list3,paper,plate_paper_blue,material2_correct,ppbo_ppb_ppwo,ppbo_ppb_ppwo_1,yes,material,plate_paper_white_original,3,,"[4789, 'yes']",,40,plate_plastic_blue_original,,[],53,Yes,No,,1,1,Female,english,Chrome,Windows,1200,1600,4.297616666666666,
1715,list3,blue,table_wood_blue,color1_correct,tmb_twb_twg,tmb_twb_twg_1,yes,color,table_wood_green,2,,"[4327, 'yes']",,41,table_metal_blue,,[],53,Yes,No,,1,1,Female,english,Chrome,Windows,1200,1600,4.297616666666666,
1714,list3,,,,,,,,,,Barbara,barbara,0,1,,bot_check,[],28,Yes,No,,3,1,Male,english,Chrome,Windows,1080,1920,2.0907666666666667,
1714,list3,blue,box_wood_blue,color_correct,practice_1,,yes,color,box_wood_brown,2,,"[2697, 'yes']",,practice_trial,box_cardboard_blue,,[],28,Yes,No,,3,1,Male,english,Chrome,Windows,1080,1920,2.0907666666666667,
1714,list3,plastic,ball_metal_red,material_incorrect,practice_2,,no,material,ball_plastic_red,4,,"[3518, 'yes']",,practice_trial,ball_metal_green,,[],28,Yes,No,,3,1,Male,english,Chrome,Windows,1080,1920,2.0907666666666667,
1714,list3,metal,bowl_glass_blue,material_correct,practice_3,,yes,material,bowl_metal_blue,2,,"[2392, 'yes']",,practice_trial,bowl_glass_green,,[],28,Yes,No,,3,1,Male,english,Chrome,Windows,1080,1920,2.0907666666666667,
1714,list3,blue,vase_glass_green,color_incorrect,practice_4,,no,color,vase_glass_blue,3,,"[2551, 'no']",,practice_trial,vase_wood_green,,[],28,Yes,No,,3,1,Male,english,Chrome,Windows,1080,1920,2.0907666666666667,
1714,list3,green,bag_plastic_blue,color_incorrect,practice_5,,no,color,bag_plastic_green,4,,"[1752, 'no']",,practice_trial,bag_paper_blue,,[],28,Yes,No,,3,1,Male,english,Chrome,Windows,1080,1920,2.0907666666666667,
1714,list3,wooden,door_steel_yellow,material_correct,practice_6,,yes,material,door_steel_red,1,,"[3984, 'yes']",,practice_trial,door_wood_yellow,,[],28,Yes,No,,3,1,Male,english,Chrome,Windows,1080,1920,2.0907666666666667,
1714,list3,plastic,cup_metal_green,material1_correct,cpg_cmg_cmso,cpg_cmg_cmso_1,yes,material,cup_metal_silver_original,1,,"[2527, 'yes']",,11,cup_plastic_green,,[],28,Yes,No,,3,1,Male,english,Chrome,Windows,1080,1920,2.0907666666666667,
1714,list3,metal,table_metal_blue,material1_incorrect,tmso_tmb_twb,tmso_tmb_twb_1,no,material,table_wood_blue,"['3', '4']",,"[2191, 'no']",,12,table_metal_silver_original,,[],28,Yes,No,,3,1,Male,english,Chrome,Windows,1080,1920,2.0907666666666667,
1714,list3,green,bottle_plastic_green,color1_correct,bgg_bpg_bpco,bgg_bpg_bpco_1,yes,color,bottle_plastic_clear_original,2,,"[1568, 'yes']",,13,bottle_glass_green,,[],28,Yes,No,,3,1,Male,english,Chrome,Windows,1080,1920,2.0907666666666667,
1714,list3,black,boot_leather_black_original,color2_correct,blg_blbo_brbo,blg_blbo_brbo_2,yes,color,boot_rubber_black_original,3,,"[1576, 'yes']",,14,boot_leather_green,,[],28,Yes,No,,3,1,Male,english,Chrome,Windows,1080,1920,2.0907666666666667,
1714,list3,paper,plate_paper_blue,material2_correct,ppbo_ppb_ppwo,ppbo_ppb_ppwo_1,yes,material,plate_paper_white_original,3,,"[2552, 'no']",,15,plate_plastic_blue_original,,[],28,Yes,No,,3,1,Male,english,Chrome,Windows,1080,1920,2.0907666666666667,
1714,list3,plastic,bottle_plastic_green,material2_incorrect,bgg_bpg_bpb,bgg_bpg_bpb_2,no,material,bottle_plastic_blue,"['4', '5']",,"[2425, 'no']",,16,bottle_glass_green,,[],28,Yes,No,,3,1,Male,english,Chrome,Windows,1080,1920,2.0907666666666667,
1714,list3,clear,bottle_glass_green,color2_correct,bpg_bgg_bgco,bpg_bgg_bgco_1,yes,color,bottle_glass_clear_original,2,,"[2207, 'yes']",,17,bottle_plastic_green,,[],28,Yes,No,,3,1,Male,english,Chrome,Windows,1080,1920,2.0907666666666667,
1714,list3,glass,pitcher_glass_blue,material2_incorrect,pmb_pgb_pgco,pmb_pgb_pgco_2,no,material,pitcher_glass_clear_original,"['4', '5']",,"[2098, 'yes']",,18,pitcher_metal_blue,,[],28,Yes,No,,3,1,Male,english,Chrome,Windows,1080,1920,2.0907666666666667,
1714,list3,blue,plate_paper_green,color1_correct,ppb_ppg_ppg,ppb_ppg_ppg_2,yes,color,plate_plastic_green,1,,"[2022, 'yes']",,19,plate_paper_blue,,[],28,Yes,No,,3,1,Male,english,Chrome,Windows,1080,1920,2.0907666666666667,
1714,list3,white,pitcher_plastic_blue,color2_correct,pmb_ppb_ppwo,pmb_ppb_ppwo_1,yes,color,pitcher_plastic_white_original,2,,"[1648, 'yes']",,20,pitcher_metal_blue,,[],28,Yes,No,,3,1,Male,english,Chrome,Windows,1080,1920,2.0907666666666667,
1714,list3,paper,plate_plastic_blue_original,material1_correct,ppb_ppbo_ppp,ppb_ppbo_ppp_1,yes,material,plate_plastic_pink,1,,"[2656, 'no']",,21,plate_paper_blue,,[],28,Yes,No,,3,1,Male,english,Chrome,Windows,1080,1920,2.0907666666666667,
1714,list3,blue,pitcher_plastic_blue,color1_incorrect,pmb_ppb_ppg,pmb_ppb_ppg_1,no,color,pitcher_plastic_green,"['3', '4']",,"[1688, 'no']",,22,pitcher_metal_blue,,[],28,Yes,No,,3,1,Male,english,Chrome,Windows,1080,1920,2.0907666666666667,
1714,list3,plastic,plate_paper_blue,material1_incorrect,ppbo_ppb_ppg,ppbo_ppb_ppg_2,no,material,plate_paper_green,"['2', '3']",,"[2640, 'no']",,23,plate_plastic_blue_original,,[],28,Yes,No,,3,1,Male,english,Chrome,Windows,1080,1920,2.0907666666666667,
1714,list3,blue,pitcher_glass_blue,color1_correct,pmb_pgb_pgg,pmb_pgb_pgg_2,yes,color,pitcher_glass_green,2,,"[2074, 'yes']",,24,pitcher_metal_blue,,[],28,Yes,No,,3,1,Male,english,Chrome,Windows,1080,1920,2.0907666666666667,
1714,list3,plastic,chair_metal_green,material2_correct,cmp_cmg_cpg,cmp_cmg_cpg_1,yes,material,chair_plastic_green,2,,"[2958, 'yes']",,25,chair_metal_purple,,[],28,Yes,No,,3,1,Male,english,Chrome,Windows,1080,1920,2.0907666666666667,
1714,list3,wooden,table_metal_green,material2_correct,tmso_tmg_twg,tmso_tmg_twg_1,yes,material,table_wood_green,2,,"[1992, 'yes']",,26,table_metal_silver_original,,[],28,Yes,No,,3,1,Male,english,Chrome,Windows,1080,1920,2.0907666666666667,
1714,list3,metal,chair_metal_purple,material1_incorrect,cmg_cmp_cwp,cmg_cmp_cwp_2,no,material,chair_wood_purple,"['3', '4']",,"[2240, 'no']",,27,chair_metal_green,,[],28,Yes,No,,3,1,Male,english,Chrome,Windows,1080,1920,2.0907666666666667,
1714,list3,metal,table_metal_blue,material1_correct,tmg_tmb_twb,tmg_tmb_twb_1,yes,material,table_wood_blue,2,,"[1991, 'yes']",,28,table_metal_green,,[],28,Yes,No,,3,1,Male,english,Chrome,Windows,1080,1920,2.0907666666666667,
1714,list3,green,bottle_glass_green,color1_incorrect,bpg_bgg_bgb,bpg_bgg_bgb_1,no,color,bottle_glass_blue,"['3', '4']",,"[1880, 'no']",,29,bottle_plastic_green,,[],28,Yes,No,,3,1,Male,english,Chrome,Windows,1080,1920,2.0907666666666667,
1714,list3,green,spoon_wood_blue,color1_incorrect,swg_swb_smb,swg_swb_smb_1,no,color,spoon_metal_blue,"['2', '3']",,"[3336, 'no']",,30,spoon_wood_green,,[],28,Yes,No,,3,1,Male,english,Chrome,Windows,1080,1920,2.0907666666666667,
1714,list3,blue,spoon_wood_blue,color2_correct,swg_swb_spb,swg_swb_spb_1,yes,color,spoon_plastic_blue,3,,"[2455, 'yes']",,31,spoon_wood_green,,[],28,Yes,No,,3,1,Male,english,Chrome,Windows,1080,1920,2.0907666666666667,
1714,list3,blue,cup_metal_green,color2_incorrect,cpg_cmg_cmb,cpg_cmg_cmb_2,no,color,cup_metal_blue,"['3', '4']",,"[1719, 'no']",,32,cup_plastic_green,,[],28,Yes,No,,3,1,Male,english,Chrome,Windows,1080,1920,2.0907666666666667,
1714,list3,wooden,table_wood_blue,material2_incorrect,tmb_twb_twbo,tmb_twb_twbo_2,no,material,table_wood_brown_original,"['4', '5']",,"[2897, 'yes']",,33,table_metal_blue,,[],28,Yes,No,,3,1,Male,english,Chrome,Windows,1080,1920,2.0907666666666667,
1714,list3,denim,jacket_leather_purple,material1_incorrect,jdp_jlp_jlbo,jdp_jlp_jlbo_2,no,material,jacket_leather_black_original,"['2', '3']",,"[2311, 'no']",,34,jacket_denim_purple,,[],28,Yes,No,,3,1,Male,english,Chrome,Windows,1080,1920,2.0907666666666667,
1714,list3,leather,jacket_leather_purple,material2_correct,jdp_jlp_jlg,jdp_jlp_jlg_1,yes,material,jacket_leather_green,3,,"[2472, 'yes']",,35,jacket_denim_purple,,[],28,Yes,No,,3,1,Male,english,Chrome,Windows,1080,1920,2.0907666666666667,
1714,list3,metal,chair_metal_purple,material1_correct,cmg_cmp_cpp,cmg_cmp_cpp_2,yes,material,chair_plastic_purple,2,,"[2752, 'yes']",,36,chair_metal_green,,[],28,Yes,No,,3,1,Male,english,Chrome,Windows,1080,1920,2.0907666666666667,
1714,list3,green,table_metal_green,color2_incorrect,tmb_tmg_twg,tmb_tmg_twg_2,no,color,table_wood_green,"['4', '5']",,"[2184, 'no']",,37,table_metal_blue,,[],28,Yes,No,,3,1,Male,english,Chrome,Windows,1080,1920,2.0907666666666667,
1714,list3,blue,table_wood_blue,color1_correct,tmb_twb_twg,tmb_twb_twg_1,yes,color,table_wood_green,2,,"[1728, 'yes']",,38,table_metal_blue,,[],28,Yes,No,,3,1,Male,english,Chrome,Windows,1080,1920,2.0907666666666667,
1714,list3,wooden,chair_metal_green,material2_incorrect,cmp_cmg_cwg,cmp_cmg_cwg_1,no,material,chair_wood_green,"['3', '4']",,"[2312, 'no']",,39,chair_metal_purple,,[],28,Yes,No,,3,1,Male,english,Chrome,Windows,1080,1920,2.0907666666666667,
1714,list3,brown,boot_leather_brown,color2_incorrect,blg_blb_brb,blg_blb_brb_1,no,color,boot_rubber_brown,"['4', '5']",,"[2384, 'no']",,40,boot_leather_green,,[],28,Yes,No,,3,1,Male,english,Chrome,Windows,1080,1920,2.0907666666666667,
1714,list3,green,plate_plastic_blue_original,color2_incorrect,ppb_ppbo_ppg,ppb_ppbo_ppg_1,no,color,plate_plastic_green,"['3', '4']",,"[1656, 'no']",,41,plate_paper_blue,,[],28,Yes,No,,3,1,Male,english,Chrome,Windows,1080,1920,2.0907666666666667,
1707,list3,,,,,,,,,,Jennifer,Jennifer,0,1,,bot_check,[],37,Yes,No,,4,1,Female,English,Firefox,Windows,768,1366,4.186933333333333,
1707,list3,blue,box_wood_blue,color_correct,practice_1,,yes,color,box_wood_brown,2,,"[6222, 'yes']",,practice_trial,box_cardboard_blue,,[],37,Yes,No,,4,1,Female,English,Firefox,Windows,768,1366,4.186933333333333,
1707,list3,plastic,ball_metal_red,material_incorrect,practice_2,,no,material,ball_plastic_red,4,,"[5263, 'yes']",,practice_trial,ball_metal_green,,[],37,Yes,No,,4,1,Female,English,Firefox,Windows,768,1366,4.186933333333333,
1707,list3,metal,bowl_glass_blue,material_correct,practice_3,,yes,material,bowl_metal_blue,2,,"[5084, 'yes']",,practice_trial,bowl_glass_green,,[],37,Yes,No,,4,1,Female,English,Firefox,Windows,768,1366,4.186933333333333,
1707,list3,blue,vase_glass_green,color_incorrect,practice_4,,no,color,vase_glass_blue,3,,"[3109, 'no']",,practice_trial,vase_wood_green,,[],37,Yes,No,,4,1,Female,English,Firefox,Windows,768,1366,4.186933333333333,
1707,list3,green,bag_plastic_blue,color_incorrect,practice_5,,no,color,bag_plastic_green,4,,"[4461, 'no']",,practice_trial,bag_paper_blue,,[],37,Yes,No,,4,1,Female,English,Firefox,Windows,768,1366,4.186933333333333,
1707,list3,wooden,door_steel_yellow,material_correct,practice_6,,yes,material,door_steel_red,1,,"[5316, 'yes']",,practice_trial,door_wood_yellow,,[],37,Yes,No,,4,1,Female,English,Firefox,Windows,768,1366,4.186933333333333,
1707,list3,glass,pitcher_glass_blue,material2_incorrect,pmb_pgb_pgco,pmb_pgb_pgco_2,no,material,pitcher_glass_clear_original,"['4', '5']",,"[2854, 'no']",,11,pitcher_metal_blue,,[],37,Yes,No,,4,1,Female,English,Firefox,Windows,768,1366,4.186933333333333,
1707,list3,green,bottle_glass_green,color1_incorrect,bpg_bgg_bgb,bpg_bgg_bgb_1,no,color,bottle_glass_blue,"['3', '4']",,"[3176, 'no']",,12,bottle_plastic_green,,[],37,Yes,No,,4,1,Female,English,Firefox,Windows,768,1366,4.186933333333333,
1707,list3,plastic,chair_metal_green,material2_correct,cmp_cmg_cpg,cmp_cmg_cpg_1,yes,material,chair_plastic_green,2,,"[3343, 'yes']",,13,chair_metal_purple,,[],37,Yes,No,,4,1,Female,English,Firefox,Windows,768,1366,4.186933333333333,
1707,list3,plastic,bottle_plastic_green,material2_incorrect,bgg_bpg_bpb,bgg_bpg_bpb_2,no,material,bottle_plastic_blue,"['4', '5']",,"[2521, 'no']",,14,bottle_glass_green,,[],37,Yes,No,,4,1,Female,English,Firefox,Windows,768,1366,4.186933333333333,
1707,list3,blue,cup_metal_green,color2_incorrect,cpg_cmg_cmb,cpg_cmg_cmb_2,no,color,cup_metal_blue,"['3', '4']",,"[2867, 'no']",,15,cup_plastic_green,,[],37,Yes,No,,4,1,Female,English,Firefox,Windows,768,1366,4.186933333333333,
1707,list3,denim,jacket_leather_purple,material1_incorrect,jdp_jlp_jlbo,jdp_jlp_jlbo_2,no,material,jacket_leather_black_original,"['2', '3']",,"[5531, 'yes']",,16,jacket_denim_purple,,[],37,Yes,No,,4,1,Female,English,Firefox,Windows,768,1366,4.186933333333333,
1707,list3,white,pitcher_plastic_blue,color2_correct,pmb_ppb_ppwo,pmb_ppb_ppwo_2,yes,color,pitcher_plastic_white_original,2,,"[4190, 'yes']",,17,pitcher_metal_blue,,[],37,Yes,No,,4,1,Female,English,Firefox,Windows,768,1366,4.186933333333333,
1707,list3,blue,plate_paper_green,color1_correct,ppb_ppg_ppg,ppb_ppg_ppg_1,yes,color,plate_plastic_green,1,,"[2542, 'no']",,18,plate_paper_blue,,[],37,Yes,No,,4,1,Female,English,Firefox,Windows,768,1366,4.186933333333333,
1707,list3,plastic,plate_paper_blue,material1_incorrect,ppbo_ppb_ppg,ppbo_ppb_ppg_2,no,material,plate_paper_green,"['2', '3']",,"[8305, 'no']",,19,plate_plastic_blue_original,,[],37,Yes,No,,4,1,Female,English,Firefox,Windows,768,1366,4.186933333333333,
1707,list3,green,plate_plastic_blue_original,color2_incorrect,ppb_ppbo_ppg,ppb_ppbo_ppg_2,no,color,plate_plastic_green,"['3', '4']",,"[2514, 'no']",,20,plate_paper_blue,,[],37,Yes,No,,4,1,Female,English,Firefox,Windows,768,1366,4.186933333333333,
1707,list3,green,spoon_wood_blue,color1_incorrect,swg_swb_smb,swg_swb_smb_1,no,color,spoon_metal_blue,"['2', '3']",,"[3784, 'no']",,21,spoon_wood_green,,[],37,Yes,No,,4,1,Female,English,Firefox,Windows,768,1366,4.186933333333333,
1707,list3,wooden,chair_metal_green,material2_incorrect,cmp_cmg_cwg,cmp_cmg_cwg_2,no,material,chair_wood_green,"['3', '4']",,"[3838, 'no']",,22,chair_metal_purple,,[],37,Yes,No,,4,1,Female,English,Firefox,Windows,768,1366,4.186933333333333,
1707,list3,blue,pitcher_glass_blue,color1_correct,pmb_pgb_pgg,pmb_pgb_pgg_2,yes,color,pitcher_glass_green,2,,"[2947, 'no']",,23,pitcher_metal_blue,,[],37,Yes,No,,4,1,Female,English,Firefox,Windows,768,1366,4.186933333333333,
1707,list3,leather,jacket_leather_purple,material2_correct,jdp_jlp_jlg,jdp_jlp_jlg_1,yes,material,jacket_leather_green,3,,"[3573, 'no']",,24,jacket_denim_purple,,[],37,Yes,No,,4,1,Female,English,Firefox,Windows,768,1366,4.186933333333333,
1707,list3,paper,plate_paper_blue,material2_correct,ppbo_ppb_ppwo,ppbo_ppb_ppwo_2,yes,material,plate_paper_white_original,3,,"[4162, 'no']",,25,plate_plastic_blue_original,,[],37,Yes,No,,4,1,Female,English,Firefox,Windows,768,1366,4.186933333333333,
1707,list3,green,table_metal_green,color2_incorrect,tmb_tmg_twg,tmb_tmg_twg_2,no,color,table_wood_green,"['4', '5']",,"[3909, 'no']",,26,table_metal_blue,,[],37,Yes,No,,4,1,Female,English,Firefox,Windows,768,1366,4.186933333333333,
1707,list3,blue,pitcher_plastic_blue,color1_incorrect,pmb_ppb_ppg,pmb_ppb_ppg_2,no,color,pitcher_plastic_green,"['3', '4']",,"[3110, 'no']",,27,pitcher_metal_blue,,[],37,Yes,No,,4,1,Female,English,Firefox,Windows,768,1366,4.186933333333333,
1707,list3,clear,bottle_glass_green,color2_correct,bpg_bgg_bgco,bpg_bgg_bgco_2,yes,color,bottle_glass_clear_original,2,,"[4495, 'yes']",,28,bottle_plastic_green,,[],37,Yes,No,,4,1,Female,English,Firefox,Windows,768,1366,4.186933333333333,
1707,list3,black,boot_leather_black_original,color2_correct,blg_blbo_brbo,blg_blbo_brbo_2,yes,color,boot_rubber_black_original,3,,"[3337, 'yes']",,29,boot_leather_green,,[],37,Yes,No,,4,1,Female,English,Firefox,Windows,768,1366,4.186933333333333,
1707,list3,brown,boot_leather_brown,color2_incorrect,blg_blb_brb,blg_blb_brb_1,no,color,boot_rubber_brown,"['4', '5']",,"[3371, 'no']",,30,boot_leather_green,,[],37,Yes,No,,4,1,Female,English,Firefox,Windows,768,1366,4.186933333333333,
1707,list3,metal,table_metal_blue,material1_incorrect,tmso_tmb_twb,tmso_tmb_twb_2,no,material,table_wood_blue,"['3', '4']",,"[3673, 'no']",,31,table_metal_silver_original,,[],37,Yes,No,,4,1,Female,English,Firefox,Windows,768,1366,4.186933333333333,
1707,list3,paper,plate_plastic_blue_original,material1_correct,ppb_ppbo_ppp,ppb_ppbo_ppp_1,yes,material,plate_plastic_pink,1,,"[3798, 'no']",,32,plate_paper_blue,,[],37,Yes,No,,4,1,Female,English,Firefox,Windows,768,1366,4.186933333333333,
1707,list3,metal,table_metal_blue,material1_correct,tmg_tmb_twb,tmg_tmb_twb_1,yes,material,table_wood_blue,2,,"[3391, 'yes']",,33,table_metal_green,,[],37,Yes,No,,4,1,Female,English,Firefox,Windows,768,1366,4.186933333333333,
1707,list3,green,bottle_plastic_green,color1_correct,bgg_bpg_bpco,bgg_bpg_bpco_2,yes,color,bottle_plastic_clear_original,2,,"[3856, 'yes']",,34,bottle_glass_green,,[],37,Yes,No,,4,1,Female,English,Firefox,Windows,768,1366,4.186933333333333,
1707,list3,metal,chair_metal_purple,material1_incorrect,cmg_cmp_cwp,cmg_cmp_cwp_1,no,material,chair_wood_purple,"['3', '4']",,"[4817, 'no']",,35,chair_metal_green,,[],37,Yes,No,,4,1,Female,English,Firefox,Windows,768,1366,4.186933333333333,
1707,list3,blue,table_wood_blue,color1_correct,tmb_twb_twg,tmb_twb_twg_2,yes,color,table_wood_green,2,,"[2970, 'yes']",,36,table_metal_blue,,[],37,Yes,No,,4,1,Female,English,Firefox,Windows,768,1366,4.186933333333333,
1707,list3,blue,spoon_wood_blue,color2_correct,swg_swb_spb,swg_swb_spb_2,yes,color,spoon_plastic_blue,3,,"[2502, 'no']",,37,spoon_wood_green,,[],37,Yes,No,,4,1,Female,English,Firefox,Windows,768,1366,4.186933333333333,
1707,list3,wooden,table_wood_blue,material2_incorrect,tmb_twb_twbo,tmb_twb_twbo_1,no,material,table_wood_brown_original,"['4', '5']",,"[2633, 'no']",,38,table_metal_blue,,[],37,Yes,No,,4,1,Female,English,Firefox,Windows,768,1366,4.186933333333333,
1707,list3,plastic,cup_metal_green,material1_correct,cpg_cmg_cmso,cpg_cmg_cmso_2,yes,material,cup_metal_silver_original,1,,"[3544, 'yes']",,39,cup_plastic_green,,[],37,Yes,No,,4,1,Female,English,Firefox,Windows,768,1366,4.186933333333333,
1707,list3,metal,chair_metal_purple,material1_correct,cmg_cmp_cpp,cmg_cmp_cpp_1,yes,material,chair_plastic_purple,2,,"[3464, 'yes']",,40,chair_metal_green,,[],37,Yes,No,,4,1,Female,English,Firefox,Windows,768,1366,4.186933333333333,
1707,list3,wooden,table_metal_green,material2_correct,tmso_tmg_twg,tmso_tmg_twg_2,yes,material,table_wood_green,2,,"[2897, 'yes']",,41,table_metal_silver_original,,[],37,Yes,No,,4,1,Female,English,Firefox,Windows,768,1366,4.186933333333333,
1713,list3,,,,,,,,,,Mary,Mary,0,1,,bot_check,[],19,No,No,,1,2,Female,English,Chrome,Windows,720,1280,3.4368333333333334,
1713,list3,blue,box_wood_blue,color_correct,practice_1,,yes,color,box_wood_brown,2,,"[4318, 'no']",,practice_trial,box_cardboard_blue,,[],19,No,No,,1,2,Female,English,Chrome,Windows,720,1280,3.4368333333333334,
1713,list3,plastic,ball_metal_red,material_incorrect,practice_2,,no,material,ball_plastic_red,4,,"[6459, 'no']",,practice_trial,ball_metal_green,,[],19,No,No,,1,2,Female,English,Chrome,Windows,720,1280,3.4368333333333334,
1713,list3,metal,bowl_glass_blue,material_correct,practice_3,,yes,material,bowl_metal_blue,2,,"[5715, 'no']",,practice_trial,bowl_glass_green,,[],19,No,No,,1,2,Female,English,Chrome,Windows,720,1280,3.4368333333333334,
1713,list3,blue,vase_glass_green,color_incorrect,practice_4,,no,color,vase_glass_blue,3,,"[3404, 'yes']",,practice_trial,vase_wood_green,,[],19,No,No,,1,2,Female,English,Chrome,Windows,720,1280,3.4368333333333334,
1713,list3,green,bag_plastic_blue,color_incorrect,practice_5,,no,color,bag_plastic_green,4,,"[3226, 'no']",,practice_trial,bag_paper_blue,,[],19,No,No,,1,2,Female,English,Chrome,Windows,720,1280,3.4368333333333334,
1713,list3,wooden,door_steel_yellow,material_correct,practice_6,,yes,material,door_steel_red,1,,"[3973, 'yes']",,practice_trial,door_wood_yellow,,[],19,No,No,,1,2,Female,English,Chrome,Windows,720,1280,3.4368333333333334,
1713,list3,black,boot_leather_black_original,color2_correct,blg_blbo_brbo,blg_blbo_brbo_1,yes,color,boot_rubber_black_original,3,,"[2725, 'yes']",,11,boot_leather_green,,[],19,No,No,,1,2,Female,English,Chrome,Windows,720,1280,3.4368333333333334,
1713,list3,green,spoon_wood_blue,color1_incorrect,swg_swb_smb,swg_swb_smb_1,no,color,spoon_metal_blue,"['2', '3']",,"[3618, 'no']",,12,spoon_wood_green,,[],19,No,No,,1,2,Female,English,Chrome,Windows,720,1280,3.4368333333333334,
1713,list3,green,plate_plastic_blue_original,color2_incorrect,ppb_ppbo_ppg,ppb_ppbo_ppg_2,no,color,plate_plastic_green,"['3', '4']",,"[3114, 'no']",,13,plate_paper_blue,,[],19,No,No,,1,2,Female,English,Chrome,Windows,720,1280,3.4368333333333334,
1713,list3,clear,bottle_glass_green,color2_correct,bpg_bgg_bgco,bpg_bgg_bgco_1,yes,color,bottle_glass_clear_original,2,,"[4820, 'yes']",,14,bottle_plastic_green,,[],19,No,No,,1,2,Female,English,Chrome,Windows,720,1280,3.4368333333333334,
1713,list3,green,table_metal_green,color2_incorrect,tmb_tmg_twg,tmb_tmg_twg_1,no,color,table_wood_green,"['4', '5']",,"[2704, 'no']",,15,table_metal_blue,,[],19,No,No,,1,2,Female,English,Chrome,Windows,720,1280,3.4368333333333334,
1713,list3,plastic,plate_paper_blue,material1_incorrect,ppbo_ppb_ppg,ppbo_ppb_ppg_2,no,material,plate_paper_green,"['2', '3']",,"[4533, 'yes']",,16,plate_plastic_blue_original,,[],19,No,No,,1,2,Female,English,Chrome,Windows,720,1280,3.4368333333333334,
1713,list3,plastic,cup_metal_green,material1_correct,cpg_cmg_cmso,cpg_cmg_cmso_1,yes,material,cup_metal_silver_original,1,,"[2613, 'no']",,17,cup_plastic_green,,[],19,No,No,,1,2,Female,English,Chrome,Windows,720,1280,3.4368333333333334,
1713,list3,blue,table_wood_blue,color1_correct,tmb_twb_twg,tmb_twb_twg_2,yes,color,table_wood_green,2,,"[2694, 'yes']",,18,table_metal_blue,,[],19,No,No,,1,2,Female,English,Chrome,Windows,720,1280,3.4368333333333334,
1713,list3,white,pitcher_plastic_blue,color2_correct,pmb_ppb_ppwo,pmb_ppb_ppwo_1,yes,color,pitcher_plastic_white_original,2,,"[2113, 'yes']",,19,pitcher_metal_blue,,[],19,No,No,,1,2,Female,English,Chrome,Windows,720,1280,3.4368333333333334,
1713,list3,wooden,table_wood_blue,material2_incorrect,tmb_twb_twbo,tmb_twb_twbo_2,no,material,table_wood_brown_original,"['4', '5']",,"[3622, 'no']",,20,table_metal_blue,,[],19,No,No,,1,2,Female,English,Chrome,Windows,720,1280,3.4368333333333334,
1713,list3,green,bottle_glass_green,color1_incorrect,bpg_bgg_bgb,bpg_bgg_bgb_1,no,color,bottle_glass_blue,"['3', '4']",,"[2391, 'no']",,21,bottle_plastic_green,,[],19,No,No,,1,2,Female,English,Chrome,Windows,720,1280,3.4368333333333334,
1713,list3,plastic,bottle_plastic_green,material2_incorrect,bgg_bpg_bpb,bgg_bpg_bpb_2,no,material,bottle_plastic_blue,"['4', '5']",,"[3664, 'yes']",,22,bottle_glass_green,,[],19,No,No,,1,2,Female,English,Chrome,Windows,720,1280,3.4368333333333334,
1713,list3,paper,plate_plastic_blue_original,material1_correct,ppb_ppbo_ppp,ppb_ppbo_ppp_1,yes,material,plate_plastic_pink,1,,"[3304, 'yes']",,23,plate_paper_blue,,[],19,No,No,,1,2,Female,English,Chrome,Windows,720,1280,3.4368333333333334,
1713,list3,plastic,chair_metal_green,material2_correct,cmp_cmg_cpg,cmp_cmg_cpg_1,yes,material,chair_plastic_green,2,,"[4254, 'yes']",,24,chair_metal_purple,,[],19,No,No,,1,2,Female,English,Chrome,Windows,720,1280,3.4368333333333334,
1713,list3,metal,chair_metal_purple,material1_incorrect,cmg_cmp_cwp,cmg_cmp_cwp_1,no,material,chair_wood_purple,"['3', '4']",,"[2810, 'no']",,25,chair_metal_green,,[],19,No,No,,1,2,Female,English,Chrome,Windows,720,1280,3.4368333333333334,
1713,list3,blue,plate_paper_green,color1_correct,ppb_ppg_ppg,ppb_ppg_ppg_2,yes,color,plate_plastic_green,1,,"[2598, 'no']",,26,plate_paper_blue,,[],19,No,No,,1,2,Female,English,Chrome,Windows,720,1280,3.4368333333333334,
1713,list3,blue,cup_metal_green,color2_incorrect,cpg_cmg_cmb,cpg_cmg_cmb_2,no,color,cup_metal_blue,"['3', '4']",,"[3108, 'no']",,27,cup_plastic_green,,[],19,No,No,,1,2,Female,English,Chrome,Windows,720,1280,3.4368333333333334,
1713,list3,leather,jacket_leather_purple,material2_correct,jdp_jlp_jlg,jdp_jlp_jlg_1,yes,material,jacket_leather_green,3,,"[2961, 'yes']",,28,jacket_denim_purple,,[],19,No,No,,1,2,Female,English,Chrome,Windows,720,1280,3.4368333333333334,
1713,list3,blue,pitcher_glass_blue,color1_correct,pmb_pgb_pgg,pmb_pgb_pgg_2,yes,color,pitcher_glass_green,2,,"[2496, 'yes']",,29,pitcher_metal_blue,,[],19,No,No,,1,2,Female,English,Chrome,Windows,720,1280,3.4368333333333334,
1713,list3,metal,chair_metal_purple,material1_correct,cmg_cmp_cpp,cmg_cmp_cpp_2,yes,material,chair_plastic_purple,2,,"[3830, 'yes']",,30,chair_metal_green,,[],19,No,No,,1,2,Female,English,Chrome,Windows,720,1280,3.4368333333333334,
1713,list3,metal,table_metal_blue,material1_incorrect,tmso_tmb_twb,tmso_tmb_twb_1,no,material,table_wood_blue,"['3', '4']",,"[2511, 'no']",,31,table_metal_silver_original,,[],19,No,No,,1,2,Female,English,Chrome,Windows,720,1280,3.4368333333333334,
1713,list3,wooden,table_metal_green,material2_correct,tmso_tmg_twg,tmso_tmg_twg_1,yes,material,table_wood_green,2,,"[3020, 'yes']",,32,table_metal_silver_original,,[],19,No,No,,1,2,Female,English,Chrome,Windows,720,1280,3.4368333333333334,
1713,list3,paper,plate_paper_blue,material2_correct,ppbo_ppb_ppwo,ppbo_ppb_ppwo_1,yes,material,plate_paper_white_original,3,,"[3773, 'yes']",,33,plate_plastic_blue_original,,[],19,No,No,,1,2,Female,English,Chrome,Windows,720,1280,3.4368333333333334,
1713,list3,metal,table_metal_blue,material1_correct,tmg_tmb_twb,tmg_tmb_twb_2,yes,material,table_wood_blue,2,,"[4235, 'yes']",,34,table_metal_green,,[],19,No,No,,1,2,Female,English,Chrome,Windows,720,1280,3.4368333333333334,
1713,list3,blue,pitcher_plastic_blue,color1_incorrect,pmb_ppb_ppg,pmb_ppb_ppg_1,no,color,pitcher_plastic_green,"['3', '4']",,"[2590, 'no']",,35,pitcher_metal_blue,,[],19,No,No,,1,2,Female,English,Chrome,Windows,720,1280,3.4368333333333334,
1713,list3,glass,pitcher_glass_blue,material2_incorrect,pmb_pgb_pgco,pmb_pgb_pgco_1,no,material,pitcher_glass_clear_original,"['4', '5']",,"[2768, 'no']",,36,pitcher_metal_blue,,[],19,No,No,,1,2,Female,English,Chrome,Windows,720,1280,3.4368333333333334,
1713,list3,brown,boot_leather_brown,color2_incorrect,blg_blb_brb,blg_blb_brb_2,no,color,boot_rubber_brown,"['4', '5']",,"[2219, 'no']",,37,boot_leather_green,,[],19,No,No,,1,2,Female,English,Chrome,Windows,720,1280,3.4368333333333334,
1713,list3,denim,jacket_leather_purple,material1_incorrect,jdp_jlp_jlbo,jdp_jlp_jlbo_1,no,material,jacket_leather_black_original,"['2', '3']",,"[2658, 'no']",,38,jacket_denim_purple,,[],19,No,No,,1,2,Female,English,Chrome,Windows,720,1280,3.4368333333333334,
1713,list3,blue,spoon_wood_blue,color2_correct,swg_swb_spb,swg_swb_spb_1,yes,color,spoon_plastic_blue,3,,"[1988, 'yes']",,39,spoon_wood_green,,[],19,No,No,,1,2,Female,English,Chrome,Windows,720,1280,3.4368333333333334,
1713,list3,wooden,chair_metal_green,material2_incorrect,cmp_cmg_cwg,cmp_cmg_cwg_1,no,material,chair_wood_green,"['3', '4']",,"[2662, 'no']",,40,chair_metal_purple,,[],19,No,No,,1,2,Female,English,Chrome,Windows,720,1280,3.4368333333333334,
1713,list3,green,bottle_plastic_green,color1_correct,bgg_bpg_bpco,bgg_bpg_bpco_1,yes,color,bottle_plastic_clear_original,2,,"[2392, 'yes']",,41,bottle_glass_green,,[],19,No,No,,1,2,Female,English,Chrome,Windows,720,1280,3.4368333333333334,
1716,list3,,,,,,,,,,Susan,Susan,0,1,,bot_check,[],31,Yes,No,,2,1,Male,English,Firefox,Windows,1080,1920,2.658316666666667,
1716,list3,blue,box_wood_blue,color_correct,practice_1,,yes,color,box_wood_brown,2,,"[4810, 'yes']",,practice_trial,box_cardboard_blue,,[],31,Yes,No,,2,1,Male,English,Firefox,Windows,1080,1920,2.658316666666667,
1716,list3,plastic,ball_metal_red,material_incorrect,practice_2,,no,material,ball_plastic_red,4,,"[5142, 'yes']",,practice_trial,ball_metal_green,,[],31,Yes,No,,2,1,Male,English,Firefox,Windows,1080,1920,2.658316666666667,
1716,list3,metal,bowl_glass_blue,material_correct,practice_3,,yes,material,bowl_metal_blue,2,,"[3840, 'yes']",,practice_trial,bowl_glass_green,,[],31,Yes,No,,2,1,Male,English,Firefox,Windows,1080,1920,2.658316666666667,
1716,list3,blue,vase_glass_green,color_incorrect,practice_4,,no,color,vase_glass_blue,3,,"[3424, 'no']",,practice_trial,vase_wood_green,,[],31,Yes,No,,2,1,Male,English,Firefox,Windows,1080,1920,2.658316666666667,
1716,list3,green,bag_plastic_blue,color_incorrect,practice_5,,no,color,bag_plastic_green,4,,"[3217, 'no']",,practice_trial,bag_paper_blue,,[],31,Yes,No,,2,1,Male,English,Firefox,Windows,1080,1920,2.658316666666667,
1716,list3,wooden,door_steel_yellow,material_correct,practice_6,,yes,material,door_steel_red,1,,"[8536, 'no']",,practice_trial,door_wood_yellow,,[],31,Yes,No,,2,1,Male,English,Firefox,Windows,1080,1920,2.658316666666667,
1716,list3,denim,jacket_leather_purple,material1_incorrect,jdp_jlp_jlbo,jdp_jlp_jlbo_2,no,material,jacket_leather_black_original,"['2', '3']",,"[5073, 'no']",,11,jacket_denim_purple,,[],31,Yes,No,,2,1,Male,English,Firefox,Windows,1080,1920,2.658316666666667,
1716,list3,wooden,table_wood_blue,material2_incorrect,tmb_twb_twbo,tmb_twb_twbo_1,no,material,table_wood_brown_original,"['4', '5']",,"[4080, 'no']",,12,table_metal_blue,,[],31,Yes,No,,2,1,Male,English,Firefox,Windows,1080,1920,2.658316666666667,
1716,list3,green,table_metal_green,color2_incorrect,tmb_tmg_twg,tmb_tmg_twg_2,no,color,table_wood_green,"['4', '5']",,"[2984, 'no']",,13,table_metal_blue,,[],31,Yes,No,,2,1,Male,English,Firefox,Windows,1080,1920,2.658316666666667,
1716,list3,white,pitcher_plastic_blue,color2_correct,pmb_ppb_ppwo,pmb_ppb_ppwo_1,yes,color,pitcher_plastic_white_original,2,,"[2393, 'yes']",,14,pitcher_metal_blue,,[],31,Yes,No,,2,1,Male,English,Firefox,Windows,1080,1920,2.658316666666667,
1716,list3,blue,cup_metal_green,color2_incorrect,cpg_cmg_cmb,cpg_cmg_cmb_1,no,color,cup_metal_blue,"['3', '4']",,"[2479, 'no']",,15,cup_plastic_green,,[],31,Yes,No,,2,1,Male,English,Firefox,Windows,1080,1920,2.658316666666667,
1716,list3,green,bottle_plastic_green,color1_correct,bgg_bpg_bpco,bgg_bpg_bpco_1,yes,color,bottle_plastic_clear_original,2,,"[2495, 'yes']",,16,bottle_glass_green,,[],31,Yes,No,,2,1,Male,English,Firefox,Windows,1080,1920,2.658316666666667,
1716,list3,green,plate_plastic_blue_original,color2_incorrect,ppb_ppbo_ppg,ppb_ppbo_ppg_1,no,color,plate_plastic_green,"['3', '4']",,"[2209, 'no']",,17,plate_paper_blue,,[],31,Yes,No,,2,1,Male,English,Firefox,Windows,1080,1920,2.658316666666667,
1716,list3,metal,chair_metal_purple,material1_correct,cmg_cmp_cpp,cmg_cmp_cpp_1,yes,material,chair_plastic_purple,2,,"[4000, 'yes']",,18,chair_metal_green,,[],31,Yes,No,,2,1,Male,English,Firefox,Windows,1080,1920,2.658316666666667,
1716,list3,glass,pitcher_glass_blue,material2_incorrect,pmb_pgb_pgco,pmb_pgb_pgco_1,no,material,pitcher_glass_clear_original,"['4', '5']",,"[2817, 'yes']",,19,pitcher_metal_blue,,[],31,Yes,No,,2,1,Male,English,Firefox,Windows,1080,1920,2.658316666666667,
1716,list3,blue,table_wood_blue,color1_correct,tmb_twb_twg,tmb_twb_twg_2,yes,color,table_wood_green,2,,"[2815, 'yes']",,20,table_metal_blue,,[],31,Yes,No,,2,1,Male,English,Firefox,Windows,1080,1920,2.658316666666667,
1716,list3,paper,plate_paper_blue,material2_correct,ppbo_ppb_ppwo,ppbo_ppb_ppwo_2,yes,material,plate_paper_white_original,3,,"[3033, 'yes']",,21,plate_plastic_blue_original,,[],31,Yes,No,,2,1,Male,English,Firefox,Windows,1080,1920,2.658316666666667,
1716,list3,blue,plate_paper_green,color1_correct,ppb_ppg_ppg,ppb_ppg_ppg_1,yes,color,plate_plastic_green,1,,"[2063, 'yes']",,22,plate_paper_blue,,[],31,Yes,No,,2,1,Male,English,Firefox,Windows,1080,1920,2.658316666666667,
1716,list3,metal,table_metal_blue,material1_incorrect,tmso_tmb_twb,tmso_tmb_twb_1,no,material,table_wood_blue,"['3', '4']",,"[3368, 'no']",,23,table_metal_silver_original,,[],31,Yes,No,,2,1,Male,English,Firefox,Windows,1080,1920,2.658316666666667,
1716,list3,blue,pitcher_glass_blue,color1_correct,pmb_pgb_pgg,pmb_pgb_pgg_2,yes,color,pitcher_glass_green,2,,"[2256, 'yes']",,24,pitcher_metal_blue,,[],31,Yes,No,,2,1,Male,English,Firefox,Windows,1080,1920,2.658316666666667,
1716,list3,wooden,table_metal_green,material2_correct,tmso_tmg_twg,tmso_tmg_twg_2,yes,material,table_wood_green,2,,"[2616, 'yes']",,25,table_metal_silver_original,,[],31,Yes,No,,2,1,Male,English,Firefox,Windows,1080,1920,2.658316666666667,
1716,list3,metal,chair_metal_purple,material1_incorrect,cmg_cmp_cwp,cmg_cmp_cwp_2,no,material,chair_wood_purple,"['3', '4']",,"[2543, 'no']",,26,chair_metal_green,,[],31,Yes,No,,2,1,Male,English,Firefox,Windows,1080,1920,2.658316666666667,
1716,list3,plastic,cup_metal_green,material1_correct,cpg_cmg_cmso,cpg_cmg_cmso_2,yes,material,cup_metal_silver_original,1,,"[3176, 'yes']",,27,cup_plastic_green,,[],31,Yes,No,,2,1,Male,English,Firefox,Windows,1080,1920,2.658316666666667,
1716,list3,plastic,plate_paper_blue,material1_incorrect,ppbo_ppb_ppg,ppbo_ppb_ppg_1,no,material,plate_paper_green,"['2', '3']",,"[3561, 'no']",,28,plate_plastic_blue_original,,[],31,Yes,No,,2,1,Male,English,Firefox,Windows,1080,1920,2.658316666666667,
1716,list3,clear,bottle_glass_green,color2_correct,bpg_bgg_bgco,bpg_bgg_bgco_2,yes,color,bottle_glass_clear_original,2,,"[2560, 'yes']",,29,bottle_plastic_green,,[],31,Yes,No,,2,1,Male,English,Firefox,Windows,1080,1920,2.658316666666667,
1716,list3,brown,boot_leather_brown,color2_incorrect,blg_blb_brb,blg_blb_brb_2,no,color,boot_rubber_brown,"['4', '5']",,"[2911, 'no']",,30,boot_leather_green,,[],31,Yes,No,,2,1,Male,English,Firefox,Windows,1080,1920,2.658316666666667,
1716,list3,paper,plate_plastic_blue_original,material1_correct,ppb_ppbo_ppp,ppb_ppbo_ppp_2,yes,material,plate_plastic_pink,1,,"[2200, 'yes']",,31,plate_paper_blue,,[],31,Yes,No,,2,1,Male,English,Firefox,Windows,1080,1920,2.658316666666667,
1716,list3,plastic,chair_metal_green,material2_correct,cmp_cmg_cpg,cmp_cmg_cpg_2,yes,material,chair_plastic_green,2,,"[3695, 'yes']",,32,chair_metal_purple,,[],31,Yes,No,,2,1,Male,English,Firefox,Windows,1080,1920,2.658316666666667,
1716,list3,blue,pitcher_plastic_blue,color1_incorrect,pmb_ppb_ppg,pmb_ppb_ppg_2,no,color,pitcher_plastic_green,"['3', '4']",,"[2208, 'no']",,33,pitcher_metal_blue,,[],31,Yes,No,,2,1,Male,English,Firefox,Windows,1080,1920,2.658316666666667,
1716,list3,leather,jacket_leather_purple,material2_correct,jdp_jlp_jlg,jdp_jlp_jlg_1,yes,material,jacket_leather_green,3,,"[2848, 'yes']",,34,jacket_denim_purple,,[],31,Yes,No,,2,1,Male,English,Firefox,Windows,1080,1920,2.658316666666667,
1716,list3,metal,table_metal_blue,material1_correct,tmg_tmb_twb,tmg_tmb_twb_2,yes,material,table_wood_blue,2,,"[2232, 'yes']",,35,table_metal_green,,[],31,Yes,No,,2,1,Male,English,Firefox,Windows,1080,1920,2.658316666666667,
1716,list3,plastic,bottle_plastic_green,material2_incorrect,bgg_bpg_bpb,bgg_bpg_bpb_2,no,material,bottle_plastic_blue,"['4', '5']",,"[3313, 'no']",,36,bottle_glass_green,,[],31,Yes,No,,2,1,Male,English,Firefox,Windows,1080,1920,2.658316666666667,
1716,list3,green,bottle_glass_green,color1_incorrect,bpg_bgg_bgb,bpg_bgg_bgb_1,no,color,bottle_glass_blue,"['3', '4']",,"[1927, 'no']",,37,bottle_plastic_green,,[],31,Yes,No,,2,1,Male,English,Firefox,Windows,1080,1920,2.658316666666667,
1716,list3,green,spoon_wood_blue,color1_incorrect,swg_swb_smb,swg_swb_smb_1,no,color,spoon_metal_blue,"['2', '3']",,"[2623, 'no']",,38,spoon_wood_green,,[],31,Yes,No,,2,1,Male,English,Firefox,Windows,1080,1920,2.658316666666667,
1716,list3,black,boot_leather_black_original,color2_correct,blg_blbo_brbo,blg_blbo_brbo_1,yes,color,boot_rubber_black_original,3,,"[2176, 'yes']",,39,boot_leather_green,,[],31,Yes,No,,2,1,Male,English,Firefox,Windows,1080,1920,2.658316666666667,
1716,list3,blue,spoon_wood_blue,color2_correct,swg_swb_spb,swg_swb_spb_2,yes,color,spoon_plastic_blue,3,,"[2840, 'yes']",,40,spoon_wood_green,,[],31,Yes,No,,2,1,Male,English,Firefox,Windows,1080,1920,2.658316666666667,
1716,list3,wooden,chair_metal_green,material2_incorrect,cmp_cmg_cwg,cmp_cmg_cwg_1,no,material,chair_wood_green,"['3', '4']",,"[2984, 'no']",,41,chair_metal_purple,,[],31,Yes,No,,2,1,Male,English,Firefox,Windows,1080,1920,2.658316666666667,
1712,list3,,,,,,,,,,Jennifer,Jennifer,0,1,,bot_check,[],27,Yes,No,,3,1,Female,English,Chrome,Mac,900,1440,2.6346333333333334,
1712,list3,blue,box_wood_blue,color_correct,practice_1,,yes,color,box_wood_brown,2,,"[3133, 'yes']",,practice_trial,box_cardboard_blue,,[],27,Yes,No,,3,1,Female,English,Chrome,Mac,900,1440,2.6346333333333334,
1712,list3,plastic,ball_metal_red,material_incorrect,practice_2,,no,material,ball_plastic_red,4,,"[4839, 'no']",,practice_trial,ball_metal_green,,[],27,Yes,No,,3,1,Female,English,Chrome,Mac,900,1440,2.6346333333333334,
1712,list3,metal,bowl_glass_blue,material_correct,practice_3,,yes,material,bowl_metal_blue,2,,"[3330, 'yes']",,practice_trial,bowl_glass_green,,[],27,Yes,No,,3,1,Female,English,Chrome,Mac,900,1440,2.6346333333333334,
1712,list3,blue,vase_glass_green,color_incorrect,practice_4,,no,color,vase_glass_blue,3,,"[2800, 'no']",,practice_trial,vase_wood_green,,[],27,Yes,No,,3,1,Female,English,Chrome,Mac,900,1440,2.6346333333333334,
1712,list3,green,bag_plastic_blue,color_incorrect,practice_5,,no,color,bag_plastic_green,4,,"[2317, 'no']",,practice_trial,bag_paper_blue,,[],27,Yes,No,,3,1,Female,English,Chrome,Mac,900,1440,2.6346333333333334,
1712,list3,wooden,door_steel_yellow,material_correct,practice_6,,yes,material,door_steel_red,1,,"[3149, 'yes']",,practice_trial,door_wood_yellow,,[],27,Yes,No,,3,1,Female,English,Chrome,Mac,900,1440,2.6346333333333334,
1712,list3,blue,pitcher_plastic_blue,color1_incorrect,pmb_ppb_ppg,pmb_ppb_ppg_1,no,color,pitcher_plastic_green,"['3', '4']",,"[2410, 'no']",,11,pitcher_metal_blue,,[],27,Yes,No,,3,1,Female,English,Chrome,Mac,900,1440,2.6346333333333334,
1712,list3,green,table_metal_green,color2_incorrect,tmb_tmg_twg,tmb_tmg_twg_2,no,color,table_wood_green,"['4', '5']",,"[2339, 'no']",,12,table_metal_blue,,[],27,Yes,No,,3,1,Female,English,Chrome,Mac,900,1440,2.6346333333333334,
1712,list3,blue,table_wood_blue,color1_correct,tmb_twb_twg,tmb_twb_twg_2,yes,color,table_wood_green,2,,"[2491, 'no']",,13,table_metal_blue,,[],27,Yes,No,,3,1,Female,English,Chrome,Mac,900,1440,2.6346333333333334,
1712,list3,metal,table_metal_blue,material1_correct,tmg_tmb_twb,tmg_tmb_twb_1,yes,material,table_wood_blue,2,,"[3274, 'yes']",,14,table_metal_green,,[],27,Yes,No,,3,1,Female,English,Chrome,Mac,900,1440,2.6346333333333334,
1712,list3,wooden,table_wood_blue,material2_incorrect,tmb_twb_twbo,tmb_twb_twbo_1,no,material,table_wood_brown_original,"['4', '5']",,"[2941, 'no']",,15,table_metal_blue,,[],27,Yes,No,,3,1,Female,English,Chrome,Mac,900,1440,2.6346333333333334,
1712,list3,green,spoon_wood_blue,color1_incorrect,swg_swb_smb,swg_swb_smb_1,no,color,spoon_metal_blue,"['2', '3']",,"[2572, 'no']",,16,spoon_wood_green,,[],27,Yes,No,,3,1,Female,English,Chrome,Mac,900,1440,2.6346333333333334,
1712,list3,plastic,chair_metal_green,material2_correct,cmp_cmg_cpg,cmp_cmg_cpg_1,yes,material,chair_plastic_green,2,,"[3228, 'yes']",,17,chair_metal_purple,,[],27,Yes,No,,3,1,Female,English,Chrome,Mac,900,1440,2.6346333333333334,
1712,list3,plastic,plate_paper_blue,material1_incorrect,ppbo_ppb_ppg,ppbo_ppb_ppg_2,no,material,plate_paper_green,"['2', '3']",,"[3498, 'no']",,18,plate_plastic_blue_original,,[],27,Yes,No,,3,1,Female,English,Chrome,Mac,900,1440,2.6346333333333334,
1712,list3,metal,chair_metal_purple,material1_incorrect,cmg_cmp_cwp,cmg_cmp_cwp_2,no,material,chair_wood_purple,"['3', '4']",,"[3351, 'no']",,19,chair_metal_green,,[],27,Yes,No,,3,1,Female,English,Chrome,Mac,900,1440,2.6346333333333334,
1712,list3,white,pitcher_plastic_blue,color2_correct,pmb_ppb_ppwo,pmb_ppb_ppwo_2,yes,color,pitcher_plastic_white_original,2,,"[2646, 'yes']",,20,pitcher_metal_blue,,[],27,Yes,No,,3,1,Female,English,Chrome,Mac,900,1440,2.6346333333333334,
1712,list3,metal,table_metal_blue,material1_incorrect,tmso_tmb_twb,tmso_tmb_twb_1,no,material,table_wood_blue,"['3', '4']",,"[2724, 'no']",,21,table_metal_silver_original,,[],27,Yes,No,,3,1,Female,English,Chrome,Mac,900,1440,2.6346333333333334,
1712,list3,blue,cup_metal_green,color2_incorrect,cpg_cmg_cmb,cpg_cmg_cmb_2,no,color,cup_metal_blue,"['3', '4']",,"[2892, 'no']",,22,cup_plastic_green,,[],27,Yes,No,,3,1,Female,English,Chrome,Mac,900,1440,2.6346333333333334,
1712,list3,brown,boot_leather_brown,color2_incorrect,blg_blb_brb,blg_blb_brb_2,no,color,boot_rubber_brown,"['4', '5']",,"[2128, 'no']",,23,boot_leather_green,,[],27,Yes,No,,3,1,Female,English,Chrome,Mac,900,1440,2.6346333333333334,
1712,list3,paper,plate_plastic_blue_original,material1_correct,ppb_ppbo_ppp,ppb_ppbo_ppp_2,yes,material,plate_plastic_pink,1,,"[3690, 'yes']",,24,plate_paper_blue,,[],27,Yes,No,,3,1,Female,English,Chrome,Mac,900,1440,2.6346333333333334,
1712,list3,black,boot_leather_black_original,color2_correct,blg_blbo_brbo,blg_blbo_brbo_1,yes,color,boot_rubber_black_original,3,,"[2580, 'yes']",,25,boot_leather_green,,[],27,Yes,No,,3,1,Female,English,Chrome,Mac,900,1440,2.6346333333333334,
1712,list3,leather,jacket_leather_purple,material2_correct,jdp_jlp_jlg,jdp_jlp_jlg_1,yes,material,jacket_leather_green,3,,"[2992, 'yes']",,26,jacket_denim_purple,,[],27,Yes,No,,3,1,Female,English,Chrome,Mac,900,1440,2.6346333333333334,
1712,list3,glass,pitcher_glass_blue,material2_incorrect,pmb_pgb_pgco,pmb_pgb_pgco_2,no,material,pitcher_glass_clear_original,"['4', '5']",,"[3099, 'no']",,27,pitcher_metal_blue,,[],27,Yes,No,,3,1,Female,English,Chrome,Mac,900,1440,2.6346333333333334,
1712,list3,plastic,cup_metal_green,material1_correct,cpg_cmg_cmso,cpg_cmg_cmso_2,yes,material,cup_metal_silver_original,1,,"[2708, 'yes']",,28,cup_plastic_green,,[],27,Yes,No,,3,1,Female,English,Chrome,Mac,900,1440,2.6346333333333334,
1712,list3,blue,spoon_wood_blue,color2_correct,swg_swb_spb,swg_swb_spb_2,yes,color,spoon_plastic_blue,3,,"[2726, 'yes']",,29,spoon_wood_green,,[],27,Yes,No,,3,1,Female,English,Chrome,Mac,900,1440,2.6346333333333334,
1712,list3,denim,jacket_leather_purple,material1_incorrect,jdp_jlp_jlbo,jdp_jlp_jlbo_1,no,material,jacket_leather_black_original,"['2', '3']",,"[3053, 'no']",,30,jacket_denim_purple,,[],27,Yes,No,,3,1,Female,English,Chrome,Mac,900,1440,2.6346333333333334,
1712,list3,green,bottle_plastic_green,color1_correct,bgg_bpg_bpco,bgg_bpg_bpco_1,yes,color,bottle_plastic_clear_original,2,,"[2161, 'yes']",,31,bottle_glass_green,,[],27,Yes,No,,3,1,Female,English,Chrome,Mac,900,1440,2.6346333333333334,
1712,list3,green,bottle_glass_green,color1_incorrect,bpg_bgg_bgb,bpg_bgg_bgb_2,no,color,bottle_glass_blue,"['3', '4']",,"[2311, 'no']",,32,bottle_plastic_green,,[],27,Yes,No,,3,1,Female,English,Chrome,Mac,900,1440,2.6346333333333334,
1712,list3,green,plate_plastic_blue_original,color2_incorrect,ppb_ppbo_ppg,ppb_ppbo_ppg_2,no,color,plate_plastic_green,"['3', '4']",,"[2837, 'no']",,33,plate_paper_blue,,[],27,Yes,No,,3,1,Female,English,Chrome,Mac,900,1440,2.6346333333333334,
1712,list3,metal,chair_metal_purple,material1_correct,cmg_cmp_cpp,cmg_cmp_cpp_1,yes,material,chair_plastic_purple,2,,"[3785, 'yes']",,34,chair_metal_green,,[],27,Yes,No,,3,1,Female,English,Chrome,Mac,900,1440,2.6346333333333334,
1712,list3,blue,plate_paper_green,color1_correct,ppb_ppg_ppg,ppb_ppg_ppg_1,yes,color,plate_plastic_green,1,,"[2528, 'yes']",,35,plate_paper_blue,,[],27,Yes,No,,3,1,Female,English,Chrome,Mac,900,1440,2.6346333333333334,
1712,list3,paper,plate_paper_blue,material2_correct,ppbo_ppb_ppwo,ppbo_ppb_ppwo_1,yes,material,plate_paper_white_original,3,,"[2455, 'yes']",,36,plate_plastic_blue_original,,[],27,Yes,No,,3,1,Female,English,Chrome,Mac,900,1440,2.6346333333333334,
1712,list3,plastic,bottle_plastic_green,material2_incorrect,bgg_bpg_bpb,bgg_bpg_bpb_1,no,material,bottle_plastic_blue,"['4', '5']",,"[2064, 'no']",,37,bottle_glass_green,,[],27,Yes,No,,3,1,Female,English,Chrome,Mac,900,1440,2.6346333333333334,
1712,list3,wooden,table_metal_green,material2_correct,tmso_tmg_twg,tmso_tmg_twg_1,yes,material,table_wood_green,2,,"[2254, 'yes']",,38,table_metal_silver_original,,[],27,Yes,No,,3,1,Female,English,Chrome,Mac,900,1440,2.6346333333333334,
1712,list3,wooden,chair_metal_green,material2_incorrect,cmp_cmg_cwg,cmp_cmg_cwg_2,no,material,chair_wood_green,"['3', '4']",,"[3815, 'no']",,39,chair_metal_purple,,[],27,Yes,No,,3,1,Female,English,Chrome,Mac,900,1440,2.6346333333333334,
1712,list3,clear,bottle_glass_green,color2_correct,bpg_bgg_bgco,bpg_bgg_bgco_2,yes,color,bottle_glass_clear_original,2,,"[2698, 'yes']",,40,bottle_plastic_green,,[],27,Yes,No,,3,1,Female,English,Chrome,Mac,900,1440,2.6346333333333334,
1712,list3,blue,pitcher_glass_blue,color1_correct,pmb_pgb_pgg,pmb_pgb_pgg_2,yes,color,pitcher_glass_green,2,,"[2289, 'yes']",,41,pitcher_metal_blue,,[],27,Yes,No,,3,1,Female,English,Chrome,Mac,900,1440,2.6346333333333334,
1711,list3,,,,,,,,,,Linda,Linda,0,1,,bot_check,[],55,Yes,No,,3,2,Female,English,Chrome,Windows,1080,1920,2.4914666666666667,
1711,list3,blue,box_wood_blue,color_correct,practice_1,,yes,color,box_wood_brown,2,,"[4775, 'no']",,practice_trial,box_cardboard_blue,,[],55,Yes,No,,3,2,Female,English,Chrome,Windows,1080,1920,2.4914666666666667,
1711,list3,plastic,ball_metal_red,material_incorrect,practice_2,,no,material,ball_plastic_red,4,,"[4187, 'no']",,practice_trial,ball_metal_green,,[],55,Yes,No,,3,2,Female,English,Chrome,Windows,1080,1920,2.4914666666666667,
1711,list3,metal,bowl_glass_blue,material_correct,practice_3,,yes,material,bowl_metal_blue,2,,"[2650, 'yes']",,practice_trial,bowl_glass_green,,[],55,Yes,No,,3,2,Female,English,Chrome,Windows,1080,1920,2.4914666666666667,
1711,list3,blue,vase_glass_green,color_incorrect,practice_4,,no,color,vase_glass_blue,3,,"[2526, 'no']",,practice_trial,vase_wood_green,,[],55,Yes,No,,3,2,Female,English,Chrome,Windows,1080,1920,2.4914666666666667,
1711,list3,green,bag_plastic_blue,color_incorrect,practice_5,,no,color,bag_plastic_green,4,,"[2442, 'no']",,practice_trial,bag_paper_blue,,[],55,Yes,No,,3,2,Female,English,Chrome,Windows,1080,1920,2.4914666666666667,
1711,list3,wooden,door_steel_yellow,material_correct,practice_6,,yes,material,door_steel_red,1,,"[3121, 'yes']",,practice_trial,door_wood_yellow,,[],55,Yes,No,,3,2,Female,English,Chrome,Windows,1080,1920,2.4914666666666667,
1711,list3,green,plate_plastic_blue_original,color2_incorrect,ppb_ppbo_ppg,ppb_ppbo_ppg_1,no,color,plate_plastic_green,"['3', '4']",,"[1822, 'no']",,11,plate_paper_blue,,[],55,Yes,No,,3,2,Female,English,Chrome,Windows,1080,1920,2.4914666666666667,
1711,list3,paper,plate_paper_blue,material2_correct,ppbo_ppb_ppwo,ppbo_ppb_ppwo_1,yes,material,plate_paper_white_original,3,,"[3302, 'no']",,12,plate_plastic_blue_original,,[],55,Yes,No,,3,2,Female,English,Chrome,Windows,1080,1920,2.4914666666666667,
1711,list3,paper,plate_plastic_blue_original,material1_correct,ppb_ppbo_ppp,ppb_ppbo_ppp_2,yes,material,plate_plastic_pink,1,,"[3351, 'yes']",,13,plate_paper_blue,,[],55,Yes,No,,3,2,Female,English,Chrome,Windows,1080,1920,2.4914666666666667,
1711,list3,blue,pitcher_glass_blue,color1_correct,pmb_pgb_pgg,pmb_pgb_pgg_1,yes,color,pitcher_glass_green,2,,"[2519, 'no']",,14,pitcher_metal_blue,,[],55,Yes,No,,3,2,Female,English,Chrome,Windows,1080,1920,2.4914666666666667,
1711,list3,wooden,table_wood_blue,material2_incorrect,tmb_twb_twbo,tmb_twb_twbo_1,no,material,table_wood_brown_original,"['4', '5']",,"[2866, 'yes']",,15,table_metal_blue,,[],55,Yes,No,,3,2,Female,English,Chrome,Windows,1080,1920,2.4914666666666667,
1711,list3,green,bottle_glass_green,color1_incorrect,bpg_bgg_bgb,bpg_bgg_bgb_2,no,color,bottle_glass_blue,"['3', '4']",,"[1743, 'no']",,16,bottle_plastic_green,,[],55,Yes,No,,3,2,Female,English,Chrome,Windows,1080,1920,2.4914666666666667,
1711,list3,glass,pitcher_glass_blue,material2_incorrect,pmb_pgb_pgco,pmb_pgb_pgco_2,no,material,pitcher_glass_clear_original,"['4', '5']",,"[3667, 'no']",,17,pitcher_metal_blue,,[],55,Yes,No,,3,2,Female,English,Chrome,Windows,1080,1920,2.4914666666666667,
1711,list3,metal,table_metal_blue,material1_incorrect,tmso_tmb_twb,tmso_tmb_twb_2,no,material,table_wood_blue,"['3', '4']",,"[2960, 'no']",,18,table_metal_silver_original,,[],55,Yes,No,,3,2,Female,English,Chrome,Windows,1080,1920,2.4914666666666667,
1711,list3,clear,bottle_glass_green,color2_correct,bpg_bgg_bgco,bpg_bgg_bgco_2,yes,color,bottle_glass_clear_original,2,,"[4861, 'no']",,19,bottle_plastic_green,,[],55,Yes,No,,3,2,Female,English,Chrome,Windows,1080,1920,2.4914666666666667,
1711,list3,blue,plate_paper_green,color1_correct,ppb_ppg_ppg,ppb_ppg_ppg_1,yes,color,plate_plastic_green,1,,"[2151, 'yes']",,20,plate_paper_blue,,[],55,Yes,No,,3,2,Female,English,Chrome,Windows,1080,1920,2.4914666666666667,
1711,list3,plastic,bottle_plastic_green,material2_incorrect,bgg_bpg_bpb,bgg_bpg_bpb_2,no,material,bottle_plastic_blue,"['4', '5']",,"[3544, 'no']",,21,bottle_glass_green,,[],55,Yes,No,,3,2,Female,English,Chrome,Windows,1080,1920,2.4914666666666667,
1711,list3,white,pitcher_plastic_blue,color2_correct,pmb_ppb_ppwo,pmb_ppb_ppwo_1,yes,color,pitcher_plastic_white_original,2,,"[1817, 'no']",,22,pitcher_metal_blue,,[],55,Yes,No,,3,2,Female,English,Chrome,Windows,1080,1920,2.4914666666666667,
1711,list3,plastic,cup_metal_green,material1_correct,cpg_cmg_cmso,cpg_cmg_cmso_1,yes,material,cup_metal_silver_original,1,,"[2386, 'yes']",,23,cup_plastic_green,,[],55,Yes,No,,3,2,Female,English,Chrome,Windows,1080,1920,2.4914666666666667,
1711,list3,plastic,chair_metal_green,material2_correct,cmp_cmg_cpg,cmp_cmg_cpg_1,yes,material,chair_plastic_green,2,,"[2536, 'yes']",,24,chair_metal_purple,,[],55,Yes,No,,3,2,Female,English,Chrome,Windows,1080,1920,2.4914666666666667,
1711,list3,metal,table_metal_blue,material1_correct,tmg_tmb_twb,tmg_tmb_twb_1,yes,material,table_wood_blue,2,,"[2613, 'yes']",,25,table_metal_green,,[],55,Yes,No,,3,2,Female,English,Chrome,Windows,1080,1920,2.4914666666666667,
1711,list3,brown,boot_leather_brown,color2_incorrect,blg_blb_brb,blg_blb_brb_2,no,color,boot_rubber_brown,"['4', '5']",,"[2409, 'no']",,26,boot_leather_green,,[],55,Yes,No,,3,2,Female,English,Chrome,Windows,1080,1920,2.4914666666666667,
1711,list3,blue,pitcher_plastic_blue,color1_incorrect,pmb_ppb_ppg,pmb_ppb_ppg_1,no,color,pitcher_plastic_green,"['3', '4']",,"[2149, 'no']",,27,pitcher_metal_blue,,[],55,Yes,No,,3,2,Female,English,Chrome,Windows,1080,1920,2.4914666666666667,
1711,list3,wooden,chair_metal_green,material2_incorrect,cmp_cmg_cwg,cmp_cmg_cwg_2,no,material,chair_wood_green,"['3', '4']",,"[3090, 'no']",,28,chair_metal_purple,,[],55,Yes,No,,3,2,Female,English,Chrome,Windows,1080,1920,2.4914666666666667,
1711,list3,blue,cup_metal_green,color2_incorrect,cpg_cmg_cmb,cpg_cmg_cmb_2,no,color,cup_metal_blue,"['3', '4']",,"[2314, 'no']",,29,cup_plastic_green,,[],55,Yes,No,,3,2,Female,English,Chrome,Windows,1080,1920,2.4914666666666667,
1711,list3,green,spoon_wood_blue,color1_incorrect,swg_swb_smb,swg_swb_smb_2,no,color,spoon_metal_blue,"['2', '3']",,"[1773, 'no']",,30,spoon_wood_green,,[],55,Yes,No,,3,2,Female,English,Chrome,Windows,1080,1920,2.4914666666666667,
1711,list3,green,bottle_plastic_green,color1_correct,bgg_bpg_bpco,bgg_bpg_bpco_1,yes,color,bottle_plastic_clear_original,2,,"[2235, 'yes']",,31,bottle_glass_green,,[],55,Yes,No,,3,2,Female,English,Chrome,Windows,1080,1920,2.4914666666666667,
1711,list3,green,table_metal_green,color2_incorrect,tmb_tmg_twg,tmb_tmg_twg_1,no,color,table_wood_green,"['4', '5']",,"[1895, 'no']",,32,table_metal_blue,,[],55,Yes,No,,3,2,Female,English,Chrome,Windows,1080,1920,2.4914666666666667,
1711,list3,blue,table_wood_blue,color1_correct,tmb_twb_twg,tmb_twb_twg_1,yes,color,table_wood_green,2,,"[2767, 'yes']",,33,table_metal_blue,,[],55,Yes,No,,3,2,Female,English,Chrome,Windows,1080,1920,2.4914666666666667,
1711,list3,leather,jacket_leather_purple,material2_correct,jdp_jlp_jlg,jdp_jlp_jlg_1,yes,material,jacket_leather_green,3,,"[2849, 'yes']",,34,jacket_denim_purple,,[],55,Yes,No,,3,2,Female,English,Chrome,Windows,1080,1920,2.4914666666666667,
1711,list3,metal,chair_metal_purple,material1_incorrect,cmg_cmp_cwp,cmg_cmp_cwp_1,no,material,chair_wood_purple,"['3', '4']",,"[2490, 'no']",,35,chair_metal_green,,[],55,Yes,No,,3,2,Female,English,Chrome,Windows,1080,1920,2.4914666666666667,
1711,list3,wooden,table_metal_green,material2_correct,tmso_tmg_twg,tmso_tmg_twg_2,yes,material,table_wood_green,2,,"[2292, 'yes']",,36,table_metal_silver_original,,[],55,Yes,No,,3,2,Female,English,Chrome,Windows,1080,1920,2.4914666666666667,
1711,list3,metal,chair_metal_purple,material1_correct,cmg_cmp_cpp,cmg_cmp_cpp_2,yes,material,chair_plastic_purple,2,,"[3867, 'yes']",,37,chair_metal_green,,[],55,Yes,No,,3,2,Female,English,Chrome,Windows,1080,1920,2.4914666666666667,
1711,list3,plastic,plate_paper_blue,material1_incorrect,ppbo_ppb_ppg,ppbo_ppb_ppg_1,no,material,plate_paper_green,"['2', '3']",,"[4185, 'no']",,38,plate_plastic_blue_original,,[],55,Yes,No,,3,2,Female,English,Chrome,Windows,1080,1920,2.4914666666666667,
1711,list3,black,boot_leather_black_original,color2_correct,blg_blbo_brbo,blg_blbo_brbo_1,yes,color,boot_rubber_black_original,3,,"[1861, 'yes']",,39,boot_leather_green,,[],55,Yes,No,,3,2,Female,English,Chrome,Windows,1080,1920,2.4914666666666667,
1711,list3,denim,jacket_leather_purple,material1_incorrect,jdp_jlp_jlbo,jdp_jlp_jlbo_2,no,material,jacket_leather_black_original,"['2', '3']",,"[3159, 'no']",,40,jacket_denim_purple,,[],55,Yes,No,,3,2,Female,English,Chrome,Windows,1080,1920,2.4914666666666667,
1711,list3,blue,spoon_wood_blue,color2_correct,swg_swb_spb,swg_swb_spb_2,yes,color,spoon_plastic_blue,3,,"[1906, 'no']",,41,spoon_wood_green,,[],55,Yes,No,,3,2,Female,English,Chrome,Windows,1080,1920,2.4914666666666667,
1709,list3,,,,,,,,,,Mary,Mary,0,1,,bot_check,[],32,Yes,No,,3,1,Male,English,Chrome,Windows,1080,1920,2.0438666666666667,
1709,list3,blue,box_wood_blue,color_correct,practice_1,,yes,color,box_wood_brown,2,,"[3371, 'yes']",,practice_trial,box_cardboard_blue,,[],32,Yes,No,,3,1,Male,English,Chrome,Windows,1080,1920,2.0438666666666667,
1709,list3,plastic,ball_metal_red,material_incorrect,practice_2,,no,material,ball_plastic_red,4,,"[3941, 'yes']",,practice_trial,ball_metal_green,,[],32,Yes,No,,3,1,Male,English,Chrome,Windows,1080,1920,2.0438666666666667,
1709,list3,metal,bowl_glass_blue,material_correct,practice_3,,yes,material,bowl_metal_blue,2,,"[3184, 'yes']",,practice_trial,bowl_glass_green,,[],32,Yes,No,,3,1,Male,English,Chrome,Windows,1080,1920,2.0438666666666667,
1709,list3,blue,vase_glass_green,color_incorrect,practice_4,,no,color,vase_glass_blue,3,,"[2472, 'no']",,practice_trial,vase_wood_green,,[],32,Yes,No,,3,1,Male,English,Chrome,Windows,1080,1920,2.0438666666666667,
1709,list3,green,bag_plastic_blue,color_incorrect,practice_5,,no,color,bag_plastic_green,4,,"[2008, 'no']",,practice_trial,bag_paper_blue,,[],32,Yes,No,,3,1,Male,English,Chrome,Windows,1080,1920,2.0438666666666667,
1709,list3,wooden,door_steel_yellow,material_correct,practice_6,,yes,material,door_steel_red,1,,"[2408, 'yes']",,practice_trial,door_wood_yellow,,[],32,Yes,No,,3,1,Male,English,Chrome,Windows,1080,1920,2.0438666666666667,
1709,list3,white,pitcher_plastic_blue,color2_correct,pmb_ppb_ppwo,pmb_ppb_ppwo_1,yes,color,pitcher_plastic_white_original,2,,"[2127, 'yes']",,11,pitcher_metal_blue,,[],32,Yes,No,,3,1,Male,English,Chrome,Windows,1080,1920,2.0438666666666667,
1709,list3,wooden,table_wood_blue,material2_incorrect,tmb_twb_twbo,tmb_twb_twbo_1,no,material,table_wood_brown_original,"['4', '5']",,"[2208, 'no']",,12,table_metal_blue,,[],32,Yes,No,,3,1,Male,English,Chrome,Windows,1080,1920,2.0438666666666667,
1709,list3,blue,spoon_wood_blue,color2_correct,swg_swb_spb,swg_swb_spb_1,yes,color,spoon_plastic_blue,3,,"[1904, 'yes']",,13,spoon_wood_green,,[],32,Yes,No,,3,1,Male,English,Chrome,Windows,1080,1920,2.0438666666666667,
1709,list3,blue,pitcher_plastic_blue,color1_incorrect,pmb_ppb_ppg,pmb_ppb_ppg_1,no,color,pitcher_plastic_green,"['3', '4']",,"[1816, 'no']",,14,pitcher_metal_blue,,[],32,Yes,No,,3,1,Male,English,Chrome,Windows,1080,1920,2.0438666666666667,
1709,list3,plastic,cup_metal_green,material1_correct,cpg_cmg_cmso,cpg_cmg_cmso_2,yes,material,cup_metal_silver_original,1,,"[2896, 'yes']",,15,cup_plastic_green,,[],32,Yes,No,,3,1,Male,English,Chrome,Windows,1080,1920,2.0438666666666667,
1709,list3,green,bottle_glass_green,color1_incorrect,bpg_bgg_bgb,bpg_bgg_bgb_2,no,color,bottle_glass_blue,"['3', '4']",,"[1744, 'no']",,16,bottle_plastic_green,,[],32,Yes,No,,3,1,Male,English,Chrome,Windows,1080,1920,2.0438666666666667,
1709,list3,green,spoon_wood_blue,color1_incorrect,swg_swb_smb,swg_swb_smb_2,no,color,spoon_metal_blue,"['2', '3']",,"[1799, 'no']",,17,spoon_wood_green,,[],32,Yes,No,,3,1,Male,English,Chrome,Windows,1080,1920,2.0438666666666667,
1709,list3,green,plate_plastic_blue_original,color2_incorrect,ppb_ppbo_ppg,ppb_ppbo_ppg_1,no,color,plate_plastic_green,"['3', '4']",,"[1656, 'no']",,18,plate_paper_blue,,[],32,Yes,No,,3,1,Male,English,Chrome,Windows,1080,1920,2.0438666666666667,
1709,list3,metal,chair_metal_purple,material1_correct,cmg_cmp_cpp,cmg_cmp_cpp_1,yes,material,chair_plastic_purple,2,,"[2671, 'yes']",,19,chair_metal_green,,[],32,Yes,No,,3,1,Male,English,Chrome,Windows,1080,1920,2.0438666666666667,
1709,list3,wooden,table_metal_green,material2_correct,tmso_tmg_twg,tmso_tmg_twg_1,yes,material,table_wood_green,2,,"[2256, 'yes']",,20,table_metal_silver_original,,[],32,Yes,No,,3,1,Male,English,Chrome,Windows,1080,1920,2.0438666666666667,
1709,list3,wooden,chair_metal_green,material2_incorrect,cmp_cmg_cwg,cmp_cmg_cwg_1,no,material,chair_wood_green,"['3', '4']",,"[2416, 'no']",,21,chair_metal_purple,,[],32,Yes,No,,3,1,Male,English,Chrome,Windows,1080,1920,2.0438666666666667,
1709,list3,blue,table_wood_blue,color1_correct,tmb_twb_twg,tmb_twb_twg_1,yes,color,table_wood_green,2,,"[2136, 'yes']",,22,table_metal_blue,,[],32,Yes,No,,3,1,Male,English,Chrome,Windows,1080,1920,2.0438666666666667,
1709,list3,paper,plate_paper_blue,material2_correct,ppbo_ppb_ppwo,ppbo_ppb_ppwo_2,yes,material,plate_paper_white_original,3,,"[3424, 'no']",,23,plate_plastic_blue_original,,[],32,Yes,No,,3,1,Male,English,Chrome,Windows,1080,1920,2.0438666666666667,
1709,list3,green,bottle_plastic_green,color1_correct,bgg_bpg_bpco,bgg_bpg_bpco_2,yes,color,bottle_plastic_clear_original,2,,"[1720, 'yes']",,24,bottle_glass_green,,[],32,Yes,No,,3,1,Male,English,Chrome,Windows,1080,1920,2.0438666666666667,
1709,list3,plastic,chair_metal_green,material2_correct,cmp_cmg_cpg,cmp_cmg_cpg_2,yes,material,chair_plastic_green,2,,"[3008, 'yes']",,25,chair_metal_purple,,[],32,Yes,No,,3,1,Male,English,Chrome,Windows,1080,1920,2.0438666666666667,
1709,list3,blue,plate_paper_green,color1_correct,ppb_ppg_ppg,ppb_ppg_ppg_2,yes,color,plate_plastic_green,1,,"[1584, 'yes']",,26,plate_paper_blue,,[],32,Yes,No,,3,1,Male,English,Chrome,Windows,1080,1920,2.0438666666666667,
1709,list3,green,table_metal_green,color2_incorrect,tmb_tmg_twg,tmb_tmg_twg_1,no,color,table_wood_green,"['4', '5']",,"[1936, 'no']",,27,table_metal_blue,,[],32,Yes,No,,3,1,Male,English,Chrome,Windows,1080,1920,2.0438666666666667,
1709,list3,glass,pitcher_glass_blue,material2_incorrect,pmb_pgb_pgco,pmb_pgb_pgco_1,no,material,pitcher_glass_clear_original,"['4', '5']",,"[1632, 'no']",,28,pitcher_metal_blue,,[],32,Yes,No,,3,1,Male,English,Chrome,Windows,1080,1920,2.0438666666666667,
1709,list3,denim,jacket_leather_purple,material1_incorrect,jdp_jlp_jlbo,jdp_jlp_jlbo_1,no,material,jacket_leather_black_original,"['2', '3']",,"[2832, 'no']",,29,jacket_denim_purple,,[],32,Yes,No,,3,1,Male,English,Chrome,Windows,1080,1920,2.0438666666666667,
1709,list3,metal,table_metal_blue,material1_incorrect,tmso_tmb_twb,tmso_tmb_twb_1,no,material,table_wood_blue,"['3', '4']",,"[2152, 'no']",,30,table_metal_silver_original,,[],32,Yes,No,,3,1,Male,English,Chrome,Windows,1080,1920,2.0438666666666667,
1709,list3,blue,cup_metal_green,color2_incorrect,cpg_cmg_cmb,cpg_cmg_cmb_1,no,color,cup_metal_blue,"['3', '4']",,"[1840, 'no']",,31,cup_plastic_green,,[],32,Yes,No,,3,1,Male,English,Chrome,Windows,1080,1920,2.0438666666666667,
1709,list3,blue,pitcher_glass_blue,color1_correct,pmb_pgb_pgg,pmb_pgb_pgg_1,yes,color,pitcher_glass_green,2,,"[1496, 'yes']",,32,pitcher_metal_blue,,[],32,Yes,No,,3,1,Male,English,Chrome,Windows,1080,1920,2.0438666666666667,
1709,list3,brown,boot_leather_brown,color2_incorrect,blg_blb_brb,blg_blb_brb_1,no,color,boot_rubber_brown,"['4', '5']",,"[1600, 'no']",,33,boot_leather_green,,[],32,Yes,No,,3,1,Male,English,Chrome,Windows,1080,1920,2.0438666666666667,
1709,list3,paper,plate_plastic_blue_original,material1_correct,ppb_ppbo_ppp,ppb_ppbo_ppp_1,yes,material,plate_plastic_pink,1,,"[2144, 'yes']",,34,plate_paper_blue,,[],32,Yes,No,,3,1,Male,English,Chrome,Windows,1080,1920,2.0438666666666667,
1709,list3,metal,chair_metal_purple,material1_incorrect,cmg_cmp_cwp,cmg_cmp_cwp_1,no,material,chair_wood_purple,"['3', '4']",,"[2096, 'no']",,35,chair_metal_green,,[],32,Yes,No,,3,1,Male,English,Chrome,Windows,1080,1920,2.0438666666666667,
1709,list3,clear,bottle_glass_green,color2_correct,bpg_bgg_bgco,bpg_bgg_bgco_1,yes,color,bottle_glass_clear_original,2,,"[1504, 'yes']",,36,bottle_plastic_green,,[],32,Yes,No,,3,1,Male,English,Chrome,Windows,1080,1920,2.0438666666666667,
1709,list3,metal,table_metal_blue,material1_correct,tmg_tmb_twb,tmg_tmb_twb_1,yes,material,table_wood_blue,2,,"[1960, 'yes']",,37,table_metal_green,,[],32,Yes,No,,3,1,Male,English,Chrome,Windows,1080,1920,2.0438666666666667,
1709,list3,black,boot_leather_black_original,color2_correct,blg_blbo_brbo,blg_blbo_brbo_2,yes,color,boot_rubber_black_original,3,,"[1920, 'yes']",,38,boot_leather_green,,[],32,Yes,No,,3,1,Male,English,Chrome,Windows,1080,1920,2.0438666666666667,
1709,list3,plastic,plate_paper_blue,material1_incorrect,ppbo_ppb_ppg,ppbo_ppb_ppg_2,no,material,plate_paper_green,"['2', '3']",,"[2328, 'yes']",,39,plate_plastic_blue_original,,[],32,Yes,No,,3,1,Male,English,Chrome,Windows,1080,1920,2.0438666666666667,
1709,list3,leather,jacket_leather_purple,material2_correct,jdp_jlp_jlg,jdp_jlp_jlg_1,yes,material,jacket_leather_green,3,,"[3360, 'yes']",,40,jacket_denim_purple,,[],32,Yes,No,,3,1,Male,English,Chrome,Windows,1080,1920,2.0438666666666667,
1709,list3,plastic,bottle_plastic_green,material2_incorrect,bgg_bpg_bpb,bgg_bpg_bpb_2,no,material,bottle_plastic_blue,"['4', '5']",,"[1368, 'no']",,41,bottle_glass_green,,[],32,Yes,No,,3,1,Male,English,Chrome,Windows,1080,1920,2.0438666666666667,
1708,list3,,,,,,,,,,Jennifer,Jennifer,0,1,,bot_check,[],33,Yes,No,,2,1,Female,English,Chrome,Windows,1080,1920,2.195666666666667,
1708,list3,blue,box_wood_blue,color_correct,practice_1,,yes,color,box_wood_brown,2,,"[3556, 'yes']",,practice_trial,box_cardboard_blue,,[],33,Yes,No,,2,1,Female,English,Chrome,Windows,1080,1920,2.195666666666667,
1708,list3,plastic,ball_metal_red,material_incorrect,practice_2,,no,material,ball_plastic_red,4,,"[2986, 'yes']",,practice_trial,ball_metal_green,,[],33,Yes,No,,2,1,Female,English,Chrome,Windows,1080,1920,2.195666666666667,
1708,list3,metal,bowl_glass_blue,material_correct,practice_3,,yes,material,bowl_metal_blue,2,,"[2863, 'yes']",,practice_trial,bowl_glass_green,,[],33,Yes,No,,2,1,Female,English,Chrome,Windows,1080,1920,2.195666666666667,
1708,list3,blue,vase_glass_green,color_incorrect,practice_4,,no,color,vase_glass_blue,3,,"[3663, 'no']",,practice_trial,vase_wood_green,,[],33,Yes,No,,2,1,Female,English,Chrome,Windows,1080,1920,2.195666666666667,
1708,list3,green,bag_plastic_blue,color_incorrect,practice_5,,no,color,bag_plastic_green,4,,"[3184, 'no']",,practice_trial,bag_paper_blue,,[],33,Yes,No,,2,1,Female,English,Chrome,Windows,1080,1920,2.195666666666667,
1708,list3,wooden,door_steel_yellow,material_correct,practice_6,,yes,material,door_steel_red,1,,"[3567, 'yes']",,practice_trial,door_wood_yellow,,[],33,Yes,No,,2,1,Female,English,Chrome,Windows,1080,1920,2.195666666666667,
1708,list3,brown,boot_leather_brown,color2_incorrect,blg_blb_brb,blg_blb_brb_1,no,color,boot_rubber_brown,"['4', '5']",,"[2735, 'no']",,11,boot_leather_green,,[],33,Yes,No,,2,1,Female,English,Chrome,Windows,1080,1920,2.195666666666667,
1708,list3,metal,table_metal_blue,material1_incorrect,tmso_tmb_twb,tmso_tmb_twb_1,no,material,table_wood_blue,"['3', '4']",,"[2511, 'no']",,12,table_metal_silver_original,,[],33,Yes,No,,2,1,Female,English,Chrome,Windows,1080,1920,2.195666666666667,
1708,list3,blue,table_wood_blue,color1_correct,tmb_twb_twg,tmb_twb_twg_2,yes,color,table_wood_green,2,,"[2128, 'yes']",,13,table_metal_blue,,[],33,Yes,No,,2,1,Female,English,Chrome,Windows,1080,1920,2.195666666666667,
1708,list3,wooden,chair_metal_green,material2_incorrect,cmp_cmg_cwg,cmp_cmg_cwg_2,no,material,chair_wood_green,"['3', '4']",,"[2128, 'no']",,14,chair_metal_purple,,[],33,Yes,No,,2,1,Female,English,Chrome,Windows,1080,1920,2.195666666666667,
